Mon, Jul 24, 2017	2:01 PM
 Notes: HOAc_8.4E-09_15 s_724
 waiting time: 50.000
 time(ms)	 temp (K)	 MS1=1.538	 MS2=17.903	 MS3=28.250	 MS4=44.784	 MS5=61.297	 MS6=31.397	 MS7=68.640	 MS8=90.000
0.000	91.000	674800.000	159190.000	133340.000	50010.000	17640.000
0.788	91.000	629100.000	161890.000	136490.000	51940.000	17850.000
1.578	91.000	626800.000	162970.000	136560.000	52300.000	17810.000
2.368	91.000	625100.000	163520.000	136490.000	53180.000	18030.000
3.157	91.000	627200.000	162560.000	138720.000	53820.000	17700.000
3.946	91.000	635300.000	165450.000	139410.000	53270.000	18000.000
4.738	91.000	627500.000	165240.000	139090.000	54000.000	17730.000
5.527	91.000	628800.000	165800.000	139130.000	53590.000	18590.000
6.316	91.000	628000.000	165820.000	142580.000	53120.000	17780.000
7.105	91.200	627000.000	170200.000	150430.000	55340.000	17850.000
7.897	91.400	638200.000	169930.000	170140.000	59020.000	28810.000
8.685	91.900	659100.000	178870.000	188530.000	57100.000	22060.000
9.476	92.800	652300.000	181010.000	187730.000	58700.000	20740.000
10.267	94.100	671600.000	175070.000	205250.000	62440.000	19830.000
11.056	95.700	682200.000	178160.000	215060.000	59990.000	19160.000
11.847	97.800	681100.000	175770.000	220180.000	61570.000	19020.000
12.639	100.300	691600.000	177160.000	230350.000	60700.000	19210.000
13.429	103.500	705600.000	177980.000	230100.000	60840.000	18700.000
14.218	106.500	704700.000	177250.000	227170.000	60740.000	18700.000
15.009	109.300	689800.000	177310.000	223340.000	60980.000	18550.000
15.802	112.000	674900.000	179220.000	216490.000	61260.000	18840.000
16.593	114.600	664000.000	178350.000	206850.000	61090.000	18630.000
17.384	116.900	658100.000	177600.000	201220.000	61250.000	18370.000
18.177	119.400	648300.000	177890.000	192640.000	61960.000	18880.000
18.968	121.500	641500.000	179710.000	189920.000	59510.000	18030.000
19.760	123.500	637100.000	176970.000	187320.000	61100.000	18250.000
20.551	125.500	640300.000	178810.000	186660.000	60790.000	18550.000
21.344	127.500	642800.000	180200.000	185620.000	60720.000	18620.000
22.135	129.600	641500.000	179040.000	185820.000	61690.000	17990.000
22.925	132.200	636600.000	177660.000	186540.000	62220.000	18480.000
23.716	134.500	638100.000	179700.000	186870.000	63150.000	18270.000
24.509	136.900	633600.000	182390.000	187340.000	62730.000	18060.000
25.300	139.400	636600.000	180020.000	187820.000	63080.000	18150.000
26.091	142.200	639300.000	179430.000	184300.000	64240.000	18050.000
26.883	144.700	639200.000	180700.000	181010.000	64010.000	19060.000
27.675	147.100	642100.000	182030.000	180140.000	64640.000	21000.000
28.468	149.400	637400.000	185190.000	177990.000	65360.000	22840.000
29.261	151.600	644800.000	184980.000	177110.000	66400.000	26830.000
30.051	154.000	639300.000	188240.000	178340.000	67470.000	32600.000
30.841	156.100	638900.000	192010.000	179970.000	69460.000	40890.000
31.633	158.200	642300.000	200230.000	184620.000	70870.000	49460.000
32.425	160.300	651300.000	205480.000	186950.000	72670.000	54780.000
33.216	162.500	656200.000	207970.000	186730.000	71270.000	44060.000
34.006	165.100	659100.000	206180.000	181490.000	69490.000	30810.000
34.798	167.500	649800.000	204470.000	178170.000	68950.000	27590.000
35.591	169.800	643800.000	203240.000	175550.000	67740.000	26260.000
36.383	172.200	635100.000	206310.000	174240.000	68170.000	25240.000
37.176	174.500	633500.000	207510.000	171900.000	68770.000	24400.000
37.963	176.800	639100.000	208500.000	172590.000	68240.000	23700.000
38.755	179.400	634600.000	208360.000	171050.000	67290.000	23690.000
39.545	181.700	641000.000	208110.000	169910.000	68870.000	23190.000
40.334	183.900	639600.000	209040.000	169130.000	68510.000	23210.000
41.121	186.200	633900.000	211560.000	171640.000	68990.000	22880.000
41.909	188.700	642200.000	211620.000	170240.000	68700.000	22560.000
42.697	191.000	642800.000	212450.000	168090.000	69810.000	22420.000
43.486	193.200	640600.000	212510.000	168760.000	69030.000	22360.000
44.277	195.500	642000.000	213770.000	167830.000	69020.000	22310.000
45.070	197.700	637400.000	216620.000	167830.000	69710.000	22390.000
45.860	200.000	637000.000	214490.000	168090.000	69510.000	21740.000
46.648	202.600	637000.000	213730.000	168830.000	69810.000	21720.000
47.435	204.900	640800.000	217090.000	165740.000	68380.000	22270.000
48.224	207.200	642200.000	215230.000	168910.000	69800.000	21380.000
49.014	209.500	651100.000	215000.000	166220.000	68930.000	21800.000
49.803	211.800	655200.000	219110.000	166310.000	69720.000	21740.000
50.595	214.000	669200.000	217010.000	164020.000	70740.000	22330.000
51.381	216.600	694900.000	216340.000	167110.000	70750.000	22020.000
52.172	218.900	726300.000	219280.000	168650.000	69670.000	21580.000
52.963	221.200	744400.000	217940.000	166580.000	69470.000	21690.000
53.755	223.400	771600.000	220190.000	166860.000	70950.000	21810.000
54.546	225.700	806700.000	217140.000	165920.000	70030.000	21610.000
55.339	228.000	837700.000	218010.000	167000.000	69470.000	21040.000
56.129	230.500	891400.000	219410.000	166890.000	69800.000	20710.000
56.919	232.800	926500.000	215750.000	166520.000	69890.000	20760.000
57.709	235.100	946300.000	219040.000	164570.000	70710.000	20660.000
58.501	237.300	1010400.000	221170.000	163140.000	69930.000	20290.000
59.295	239.600	1030300.000	221660.000	165160.000	70560.000	20160.000
60.090	242.200	1076200.000	219200.000	167330.000	70830.000	20240.000
60.880	244.500	1127000.000	219820.000	164310.000	70170.000	19580.000
61.671	246.700	1145700.000	221140.000	165300.000	71040.000	19930.000
62.463	248.900	1186400.000	221000.000	165450.000	71270.000	18710.000
63.256	251.100	1209100.000	218290.000	163910.000	70940.000	19110.000
64.047	253.700	1251900.000	219530.000	163370.000	69780.000	18810.000
64.839	255.900	1267600.000	218900.000	164330.000	71130.000	18420.000
65.634	258.200	1303400.000	215520.000	162640.000	69770.000	18460.000
66.426	260.500	1327500.000	215900.000	162860.000	70320.000	17660.000
67.218	263.100	1364500.000	216600.000	163620.000	70690.000	17680.000
68.009	265.400	1386200.000	218130.000	164540.000	69000.000	17590.000
68.799	267.700	1360800.000	217850.000	163750.000	70660.000	17550.000
69.589	270.000	1329600.000	215410.000	164950.000	71730.000	17260.000
70.381	272.400	1297000.000	214860.000	165580.000	70780.000	17090.000
71.173	274.700	1238400.000	213540.000	164940.000	71380.000	17570.000
71.966	277.300	1174300.000	214750.000	165190.000	70910.000	17140.000
72.757	279.700	1098100.000	215610.000	163840.000	69820.000	16850.000
73.547	281.900	1071200.000	216330.000	166460.000	71350.000	16860.000
74.337	284.200	1028400.000	217800.000	165000.000	70870.000	17000.000
75.128	286.500	995400.000	216140.000	166460.000	71960.000	16840.000
75.920	288.800	968500.000	220300.000	166750.000	71350.000	16670.000
76.712	291.000	948800.000	217300.000	167490.000	72130.000	16320.000
77.503	293.600	924400.000	219940.000	164970.000	70710.000	16010.000
78.295	295.700	906900.000	219220.000	166970.000	70870.000	16330.000
79.083	298.000	893200.000	222750.000	165540.000	71250.000	16240.000
79.869	300.500	885900.000	224780.000	167200.000	71170.000	16270.000
80.655	302.400	864400.000	224110.000	167670.000	71000.000	16290.000
81.443	305.100	853500.000	225050.000	165520.000	72640.000	16200.000
82.231	307.400	848200.000	227570.000	164960.000	71810.000	15900.000
83.022	309.600	851400.000	229870.000	167790.000	72610.000	16130.000
83.812	311.900	843200.000	228690.000	164530.000	71610.000	16160.000
84.599	314.600	834000.000	224480.000	167100.000	71630.000	15790.000
85.386	316.900	822000.000	225470.000	164620.000	72370.000	16320.000
86.172	319.200	822700.000	221830.000	165930.000	71650.000	15780.000
86.960	321.100	814400.000	222050.000	165010.000	72120.000	15350.000
87.748	323.800	824000.000	219900.000	164770.000	72040.000	15040.000
88.535	326.100	808700.000	218560.000	165420.000	72930.000	15740.000
89.325	328.300	805500.000	218750.000	167450.000	71960.000	15970.000
90.111	330.700	809500.000	217590.000	166730.000	71790.000	15680.000
90.905	333.300	810100.000	219840.000	165420.000	72770.000	15700.000
91.696	335.600	811500.000	217860.000	166320.000	71990.000	15610.000
92.483	337.900	798300.000	216400.000	165670.000	72200.000	15670.000
93.273	339.800	802000.000	218240.000	167130.000	72240.000	15430.000
94.063	342.700	799800.000	220140.000	167100.000	72930.000	15570.000
94.855	345.000	789900.000	219770.000	166910.000	72540.000	15050.000
95.646	347.300	783800.000	220040.000	165590.000	73290.000	15330.000
96.436	349.600	779500.000	218910.000	167840.000	72460.000	15200.000
97.227	351.900	774600.000	217780.000	165930.000	72950.000	15610.000
98.016	354.500	780500.000	220200.000	165590.000	74210.000	15160.000
98.808	356.800	774600.000	222360.000	167470.000	73670.000	15600.000
99.599	359.000	777300.000	221910.000	168060.000	74760.000	14920.000
100.390	361.300	781900.000	224110.000	168650.000	75250.000	14460.000
101.180	363.600	776100.000	221490.000	170740.000	75860.000	15500.000
101.973	365.800	793700.000	224650.000	172730.000	76170.000	15070.000
102.766	368.500	790100.000	221920.000	171970.000	76690.000	14540.000
103.559	370.700	793900.000	222780.000	173070.000	77780.000	15360.000
104.349	373.000	788000.000	224470.000	175790.000	78450.000	15130.000
105.141	375.400	787900.000	220680.000	176850.000	79490.000	15220.000
105.934	377.600	787900.000	224340.000	178850.000	82140.000	15210.000
106.726	380.200	804900.000	223810.000	181380.000	81830.000	14830.000
107.518	382.500	801100.000	224800.000	184470.000	84170.000	15110.000
108.310	384.800	809000.000	223930.000	189310.000	86020.000	14840.000
109.104	387.100	821000.000	223000.000	191710.000	88550.000	15330.000
109.894	389.400	829500.000	223700.000	195080.000	91660.000	14690.000
110.687	392.000	836600.000	226230.000	202980.000	95210.000	14750.000
111.480	394.300	846700.000	226280.000	210510.000	100720.000	14530.000
112.270	396.500	872600.000	227050.000	214480.000	106080.000	14710.000
113.061	398.800	888500.000	225950.000	223070.000	113210.000	14760.000
113.847	401.100	907000.000	226230.000	232900.000	119920.000	15170.000
114.638	403.700	939500.000	227870.000	244280.000	126570.000	14980.000
115.432	405.900	982700.000	229060.000	257220.000	135200.000	15080.000
116.223	408.200	1010600.000	229890.000	271710.000	147930.000	14340.000
117.015	410.500	1066700.000	229720.000	287200.000	160640.000	14730.000
117.806	413.100	1141100.000	228750.000	302480.000	176940.000	14070.000
118.596	415.300	1212500.000	230090.000	326270.000	202120.000	15080.000
119.386	417.600	1331800.000	229690.000	358280.000	242030.000	15310.000
120.173	419.900	1512900.000	233190.000	396410.000	296920.000	15150.000
120.961	422.200	1746600.000	229260.000	441450.000	407270.000	15640.000
121.750	424.400	2199100.000	234050.000	502730.000	711740.000	15780.000
122.538	427.000	3265200.000	234620.000	580480.000	1457130.000	16870.000
123.327	429.300	4747300.000	236250.000	650980.000	1216380.000	16600.000
124.114	431.500	3997700.000	237870.000	629340.000	541210.000	15250.000
124.904	433.800	2317700.000	234570.000	574970.000	266990.000	15200.000
125.691	436.000	1627900.000	238060.000	535550.000	205560.000	15280.000
126.480	438.300	1398100.000	235980.000	491350.000	180040.000	15230.000
127.271	440.600	1284900.000	235530.000	452310.000	163390.000	14250.000
128.061	443.200	1178900.000	235020.000	415330.000	154090.000	14570.000
128.851	445.500	1132600.000	232980.000	385710.000	147670.000	14620.000
129.643	447.700	1075100.000	238030.000	355570.000	139350.000	14540.000
130.435	450.000	1029100.000	236370.000	326440.000	137400.000	14380.000
131.226	452.300	1007400.000	236230.000	306660.000	133160.000	14260.000
132.013	454.900	965800.000	236000.000	295260.000	127870.000	14000.000
132.803	456.800	933900.000	236630.000	280730.000	126810.000	14490.000
133.592	459.500	903600.000	236650.000	274920.000	122660.000	14080.000
134.382	461.800	879900.000	235500.000	267240.000	121980.000	14200.000
135.174	464.000	862700.000	235540.000	263600.000	118240.000	14200.000
135.967	466.600	846000.000	232160.000	254320.000	116960.000	13930.000
136.758	468.600	830800.000	232970.000	254890.000	116060.000	14070.000
137.550	471.200	817800.000	235900.000	251510.000	115580.000	14210.000
138.342	473.400	806400.000	237190.000	251730.000	112350.000	13730.000
139.135	475.700	794800.000	238310.000	250760.000	111530.000	13930.000
139.924	478.000	784300.000	237670.000	247550.000	109830.000	13570.000
140.716	480.600	777800.000	238720.000	243850.000	110620.000	14050.000
141.508	482.800	771800.000	237610.000	243480.000	108640.000	14270.000
142.301	485.100	763000.000	240190.000	243050.000	104830.000	13960.000
143.093	487.300	756400.000	239530.000	238370.000	105340.000	14370.000
143.883	490.000	745600.000	237630.000	234800.000	104790.000	13600.000
144.675	492.200	731800.000	241160.000	233970.000	102510.000	13910.000
145.471	494.500	731400.000	237740.000	233140.000	101100.000	14190.000
146.261	496.800	738500.000	241610.000	233430.000	102120.000	13820.000
147.053	499.100	724900.000	241040.000	230730.000	99060.000	13500.000
147.845	501.300	730300.000	241090.000	229130.000	98440.000	13790.000
148.637	503.600	715600.000	240130.000	226830.000	98350.000	13880.000
149.429	506.200	714500.000	241560.000	225400.000	97050.000	13570.000
150.220	508.500	695400.000	242020.000	224970.000	98210.000	13580.000
151.010	510.700	700200.000	240390.000	223490.000	98110.000	13600.000
151.800	513.300	689500.000	243470.000	226240.000	96020.000	13720.000
152.591	515.300	683900.000	245330.000	223490.000	96410.000	13640.000
153.382	517.900	680700.000	246930.000	225300.000	95610.000	13750.000
154.171	520.100	684100.000	245260.000	219980.000	94120.000	13920.000
154.962	522.400	665400.000	246130.000	218850.000	93130.000	13740.000
155.753	524.700	661400.000	244820.000	218530.000	92950.000	13600.000
156.544	526.900	655800.000	244360.000	218040.000	93150.000	13470.000
157.336	529.500	649400.000	244650.000	215590.000	93760.000	13530.000
158.125	531.800	652000.000	247320.000	214970.000	91920.000	13800.000
158.914	534.100	638000.000	244580.000	214230.000	91690.000	13780.000
159.704	536.300	635900.000	243500.000	211930.000	91030.000	13640.000
160.492	538.600	630800.000	247620.000	214690.000	92990.000	13540.000
161.280	541.200	629000.000	246160.000	211790.000	91680.000	13480.000
162.071	543.500	629600.000	245700.000	212500.000	91150.000	13880.000
162.859	545.800	633200.000	247590.000	211550.000	90500.000	13320.000
163.651	548.000	628800.000	247540.000	211630.000	90020.000	13520.000
164.441	550.300	624500.000	246350.000	208280.000	91070.000	13600.000
165.231	552.800	622200.000	247080.000	208230.000	89660.000	13360.000
166.018	555.100	616400.000	249580.000	205880.000	90050.000	13570.000
166.808	557.300	619800.000	247530.000	210550.000	91230.000	13450.000
167.596	559.600	614400.000	249800.000	206120.000	90560.000	13650.000
168.387	561.800	614100.000	250270.000	209480.000	90560.000	13790.000
169.175	564.100	614400.000	248060.000	207520.000	90030.000	13430.000
169.967	566.700	613500.000	248760.000	208600.000	91310.000	13270.000
170.755	569.000	616000.000	247330.000	206550.000	90550.000	13520.000
171.547	571.300	608200.000	247430.000	206490.000	90880.000	13510.000
172.338	573.500	604900.000	249750.000	206930.000	90330.000	13290.000
173.128	575.800	604200.000	248250.000	205890.000	90360.000	13130.000
173.922	578.300	601300.000	249590.000	206730.000	89460.000	13200.000
174.710	580.600	601200.000	248180.000	208840.000	91620.000	13140.000
175.502	582.900	607600.000	250860.000	207970.000	91970.000	13620.000
176.293	585.100	606500.000	249950.000	211080.000	91080.000	13270.000
177.082	587.400	606500.000	252410.000	209250.000	91210.000	13700.000
177.871	589.700	603000.000	248030.000	210100.000	91270.000	13270.000
178.663	592.200	600500.000	249370.000	211410.000	90120.000	13550.000
179.453	594.500	611100.000	251850.000	211510.000	92680.000	13470.000
180.245	596.700	606600.000	248910.000	216150.000	92450.000	13150.000
181.035	599.000	602500.000	250760.000	214140.000	91280.000	13230.000
181.825	601.300	610600.000	252440.000	216290.000	91360.000	13350.000
