Fri, Jun 02, 2017	10:17 AM
 Notes: 
 waiting time: 50.000
 time(ms)	 temp (K)	 MS1=1.538	 MS2=17.895	 MS3=28.219	 MS4=43.765	 MS5=44.818	 MS6=45.749	 MS7=50.000	 MS8=50.000
0.000	105.100	134840.000	134150.000	134410.000	135680.000	135760.000
0.788	104.900	135810.000	136160.000	136330.000	135860.000	135850.000
1.577	104.600	135430.000	137370.000	136600.000	135660.000	135970.000
2.371	104.300	134950.000	136670.000	134800.000	136150.000	135850.000
3.189	104.100	135250.000	136010.000	134640.000	135650.000	135850.000
3.996	103.800	136380.000	135080.000	135550.000	137050.000	134550.000
4.815	103.500	136480.000	136810.000	137700.000	136520.000	135550.000
5.612	103.200	136910.000	136630.000	135490.000	136510.000	136680.000
0.000	88.600	265420.000	31910.000	88160.000	1000.000	19090.000
0.791	88.600	257270.000	32710.000	88600.000	1020.000	18870.000
1.599	88.500	256550.000	32960.000	89970.000	1110.000	19290.000
2.389	88.500	260950.000	33210.000	89810.000	980.000	19270.000
3.204	88.400	259090.000	34520.000	89740.000	980.000	19990.000
3.999	88.400	258720.000	34940.000	90310.000	1020.000	20160.000
4.877	88.300	258360.000	35600.000	91380.000	980.000	19990.000
5.742	88.300	258490.000	35430.000	90370.000	980.000	20790.000
6.537	88.200	256150.000	37090.000	91270.000	1240.000	20750.000
7.335	88.100	257830.000	38600.000	91470.000	1080.000	20710.000
8.132	88.100	259620.000	39040.000	92660.000	1020.000	21430.000
8.929	88.100	257600.000	39450.000	91150.000	1030.000	21280.000
9.735	88.100	257590.000	39840.000	92440.000	1130.000	21690.000
10.531	88.000	255930.000	40880.000	92720.000	1130.000	21960.000
11.348	87.900	258290.000	41480.000	93260.000	1100.000	22610.000
12.159	87.900	257970.000	42240.000	93540.000	1190.000	22290.000
12.962	87.800	254450.000	43210.000	93620.000	1100.000	22180.000
13.758	87.700	256240.000	43950.000	95120.000	1080.000	23020.000
14.566	87.700	255240.000	45290.000	95630.000	1260.000	23650.000
15.363	87.800	256120.000	46170.000	97730.000	1290.000	23590.000
16.167	88.000	261500.000	47100.000	100220.000	1140.000	23790.000
16.962	88.600	259940.000	48340.000	103800.000	1320.000	24430.000
17.756	89.500	259640.000	48780.000	109450.000	1350.000	25100.000
18.548	90.800	260310.000	49640.000	112970.000	1660.000	26400.000
19.345	92.700	265180.000	49850.000	117800.000	1420.000	27480.000
20.137	94.300	265640.000	50800.000	121390.000	1300.000	27500.000
20.949	96.600	268860.000	52260.000	123970.000	1450.000	27700.000
21.745	98.800	264870.000	52130.000	125300.000	1500.000	27810.000
22.540	101.100	264820.000	52720.000	127460.000	1520.000	27710.000
23.338	103.600	269670.000	53550.000	126230.000	1620.000	28180.000
24.131	105.900	267710.000	54690.000	126570.000	1680.000	28190.000
24.926	108.100	265590.000	55210.000	123800.000	1620.000	28100.000
25.721	110.600	264150.000	56290.000	122260.000	1460.000	28540.000
26.534	112.900	266580.000	56340.000	121010.000	1750.000	28990.000
27.326	115.000	265730.000	57740.000	121310.000	1770.000	28000.000
28.127	117.600	260530.000	58080.000	120640.000	1650.000	29250.000
29.027	120.200	263170.000	59160.000	119760.000	1780.000	29670.000
29.938	122.600	262570.000	59830.000	117620.000	1670.000	29330.000
30.757	124.900	264430.000	62030.000	118990.000	1700.000	29340.000
31.549	127.400	264680.000	61770.000	120580.000	1800.000	30230.000
32.344	129.600	262970.000	62620.000	119240.000	1850.000	30050.000
33.139	131.800	261750.000	63760.000	120130.000	1800.000	30700.000
33.938	134.100	262550.000	64860.000	120540.000	1710.000	30210.000
34.744	136.400	265860.000	65400.000	122100.000	1900.000	30750.000
35.541	138.900	267930.000	65710.000	119380.000	1860.000	30170.000
36.334	141.200	266640.000	67660.000	119970.000	1880.000	30670.000
37.134	143.400	269260.000	68170.000	121910.000	1720.000	31200.000
37.926	145.600	267190.000	69530.000	120880.000	1950.000	32250.000
38.721	147.900	267130.000	69560.000	120950.000	1930.000	32500.000
39.515	150.500	267380.000	71370.000	121960.000	1830.000	32860.000
40.306	152.700	266380.000	73250.000	123670.000	1920.000	33600.000
41.104	155.000	268510.000	74760.000	123110.000	1870.000	33150.000
41.899	157.600	266330.000	77410.000	124450.000	1870.000	33630.000
42.693	159.800	268730.000	78140.000	124700.000	1860.000	33960.000
43.489	162.100	266420.000	79910.000	125480.000	2000.000	34090.000
44.283	164.300	269060.000	82020.000	126910.000	1970.000	34600.000
45.080	166.900	269030.000	84770.000	127820.000	2000.000	35230.000
45.876	169.100	269420.000	86160.000	128650.000	1960.000	35890.000
46.671	171.400	266720.000	88330.000	129270.000	2010.000	35740.000
47.466	173.700	269960.000	89670.000	130100.000	2050.000	35690.000
48.261	176.300	268530.000	89840.000	131850.000	2010.000	36210.000
49.089	178.500	266830.000	88870.000	133340.000	2040.000	36760.000
49.926	181.200	268240.000	88370.000	133470.000	1970.000	36830.000
50.733	183.500	271350.000	88830.000	134290.000	2040.000	37490.000
51.575	186.000	271390.000	89000.000	137190.000	2040.000	37320.000
52.372	188.300	267010.000	88090.000	137940.000	2070.000	37780.000
53.168	190.600	270900.000	90080.000	138670.000	2100.000	38240.000
54.003	192.800	268970.000	89790.000	143050.000	2190.000	38060.000
54.823	195.400	269690.000	90740.000	145200.000	2120.000	38840.000
55.620	197.800	268720.000	91480.000	148770.000	2170.000	39880.000
56.444	200.400	267440.000	91730.000	151970.000	2220.000	40860.000
57.238	202.600	268720.000	91680.000	155490.000	2210.000	41010.000
58.034	204.900	268680.000	93530.000	159730.000	2070.000	40670.000
58.853	207.500	272080.000	94240.000	162540.000	2240.000	41340.000
59.648	209.800	269440.000	94510.000	168230.000	2250.000	42750.000
60.442	212.100	267400.000	94850.000	172900.000	2220.000	42370.000
61.235	214.300	270450.000	97540.000	178260.000	2240.000	43060.000
62.038	216.900	272650.000	97570.000	181860.000	2480.000	42990.000
62.831	219.200	272210.000	97920.000	187370.000	2180.000	44080.000
63.624	221.500	271460.000	98140.000	193230.000	2410.000	44780.000
64.416	223.800	274110.000	98980.000	197340.000	2270.000	44170.000
65.211	226.400	273680.000	99920.000	204230.000	2330.000	45080.000
66.005	228.700	273820.000	100360.000	209610.000	2410.000	45680.000
66.797	231.000	275120.000	101260.000	216560.000	2280.000	45580.000
67.593	233.300	274720.000	101450.000	222040.000	2760.000	46180.000
68.388	235.500	276930.000	102000.000	231380.000	2510.000	47190.000
69.180	238.100	278740.000	104790.000	240260.000	2540.000	47140.000
69.972	240.400	278670.000	104550.000	252220.000	2660.000	47280.000
70.819	243.000	279310.000	106910.000	265340.000	2610.000	47040.000
71.628	245.300	282050.000	105560.000	276510.000	2530.000	47390.000
72.421	247.600	284980.000	107620.000	293380.000	2760.000	48230.000
73.213	249.900	284420.000	108510.000	307990.000	3000.000	47710.000
74.007	252.500	285970.000	109390.000	322870.000	3050.000	48090.000
74.800	254.800	286280.000	110430.000	339680.000	2910.000	50010.000
75.593	257.100	288020.000	110530.000	355630.000	2680.000	48890.000
76.412	259.700	297470.000	112420.000	375860.000	3060.000	50190.000
77.204	262.000	298750.000	113340.000	392490.000	2980.000	49350.000
77.995	264.300	306990.000	112760.000	405440.000	3090.000	50700.000
78.783	266.600	317250.000	113720.000	421180.000	3270.000	50500.000
79.578	268.800	326890.000	115020.000	428570.000	3280.000	51380.000
80.373	271.100	342570.000	117170.000	434840.000	3150.000	50630.000
81.168	273.700	362910.000	116320.000	439460.000	3250.000	51280.000
81.964	276.000	395160.000	118700.000	439460.000	3120.000	51840.000
82.761	278.300	430240.000	117850.000	437730.000	3240.000	51070.000
83.557	280.600	469660.000	121440.000	428350.000	3220.000	51780.000
84.377	283.200	509560.000	120860.000	414770.000	3200.000	52620.000
85.176	285.500	542050.000	122620.000	402910.000	3190.000	53120.000
85.990	287.800	575890.000	121740.000	387760.000	3460.000	53030.000
86.787	290.400	591410.000	123630.000	375420.000	3180.000	52970.000
87.583	292.700	610640.000	123040.000	359380.000	3000.000	53190.000
88.419	295.300	617690.000	123970.000	347250.000	3270.000	53900.000
89.215	297.300	617910.000	124770.000	341660.000	2890.000	53820.000
90.012	299.900	616190.000	125360.000	332880.000	3010.000	53910.000
90.819	302.200	604380.000	126770.000	326970.000	3220.000	53690.000
91.616	304.800	597050.000	126490.000	320690.000	3170.000	54060.000
92.412	307.100	580800.000	127680.000	318880.000	3110.000	54820.000
93.208	309.400	563270.000	128210.000	315890.000	3190.000	54990.000
94.004	311.700	548220.000	129870.000	314360.000	3180.000	55100.000
94.798	314.300	526440.000	129710.000	313710.000	3070.000	55800.000
95.599	316.500	512070.000	131480.000	318930.000	3140.000	55820.000
96.398	318.800	492310.000	130420.000	319000.000	3200.000	56080.000
97.192	321.100	471260.000	132060.000	324110.000	3350.000	56510.000
98.002	323.700	449970.000	132930.000	325360.000	3240.000	55690.000
98.798	326.000	430550.000	133010.000	329850.000	3190.000	57010.000
99.594	328.300	414420.000	132740.000	338440.000	3410.000	57140.000
100.387	330.600	403100.000	134450.000	345990.000	3250.000	57270.000
101.184	333.200	387730.000	134770.000	350130.000	3320.000	57790.000
101.992	335.500	372690.000	136290.000	359510.000	3370.000	58220.000
102.786	337.800	361250.000	136830.000	366260.000	3180.000	57540.000
103.580	340.000	350250.000	139350.000	378570.000	3380.000	57940.000
104.374	342.700	339430.000	139720.000	387170.000	3500.000	58400.000
105.171	344.900	335660.000	141300.000	397690.000	3360.000	58450.000
105.963	347.200	327180.000	140660.000	407180.000	3300.000	58560.000
106.772	349.200	319820.000	141410.000	420740.000	3450.000	58010.000
107.569	352.100	318370.000	142950.000	433120.000	3480.000	58790.000
108.365	354.400	317100.000	144620.000	442480.000	3520.000	59220.000
109.157	356.700	314370.000	144750.000	457560.000	3750.000	59440.000
109.966	359.300	312020.000	146260.000	467150.000	3640.000	59410.000
110.782	361.600	308890.000	145220.000	480430.000	3820.000	59600.000
111.578	363.900	309000.000	147750.000	492010.000	3880.000	60440.000
112.374	366.200	308420.000	146510.000	505950.000	3790.000	59860.000
113.167	368.800	307450.000	148860.000	520510.000	3930.000	59820.000
113.963	371.100	305550.000	148020.000	531090.000	4030.000	61440.000
114.758	373.300	307460.000	149700.000	543340.000	3870.000	60190.000
115.554	375.700	311260.000	150520.000	559690.000	3830.000	60760.000
116.350	378.300	312270.000	152570.000	577800.000	3920.000	61620.000
117.144	380.600	313090.000	152310.000	593140.000	4210.000	61550.000
117.941	382.900	316690.000	154540.000	609360.000	3800.000	62430.000
118.764	385.500	313720.000	153250.000	627940.000	4000.000	61610.000
119.578	387.800	320500.000	155860.000	651030.000	3940.000	63530.000
120.374	390.100	314990.000	154960.000	671090.000	4230.000	62610.000
121.172	392.300	320970.000	156380.000	693250.000	4360.000	63170.000
121.973	394.900	324050.000	157430.000	714880.000	4430.000	63060.000
122.769	397.200	325290.000	159670.000	738880.000	4170.000	62690.000
123.564	399.500	325870.000	159030.000	763960.000	4220.000	64620.000
124.387	402.100	327080.000	158400.000	794960.000	4310.000	63750.000
125.186	404.100	329420.000	161770.000	821020.000	4550.000	63880.000
125.980	406.700	332180.000	162590.000	853460.000	4490.000	64420.000
126.776	409.000	332950.000	162240.000	876590.000	4450.000	64890.000
127.574	411.300	327570.000	163530.000	908920.000	4480.000	65000.000
128.387	413.900	334240.000	163780.000	932680.000	4540.000	63980.000
129.184	416.100	328450.000	163870.000	960500.000	4510.000	65740.000
129.995	418.800	333730.000	165390.000	978120.000	4680.000	65460.000
130.791	421.000	332700.000	166970.000	996020.000	4590.000	66050.000
131.589	423.300	333470.000	168400.000	1001170.000	4560.000	65180.000
132.385	425.600	333720.000	166980.000	1003320.000	4720.000	65330.000
133.182	428.200	330460.000	168010.000	992470.000	4330.000	66370.000
133.994	430.500	333170.000	169870.000	966580.000	4680.000	67610.000
134.789	432.800	328350.000	171170.000	931430.000	4610.000	67420.000
135.617	435.000	328000.000	169590.000	874850.000	4690.000	66100.000
136.416	437.600	324370.000	172460.000	809240.000	4660.000	67900.000
137.212	439.900	318790.000	172770.000	727370.000	4760.000	66920.000
138.010	442.500	316100.000	175510.000	644390.000	4520.000	67480.000
138.807	444.800	314300.000	175530.000	548550.000	4550.000	66600.000
139.601	447.000	307770.000	175610.000	461430.000	4490.000	66700.000
140.396	449.400	303010.000	178240.000	387380.000	4200.000	67790.000
141.193	451.700	299460.000	177270.000	327330.000	4390.000	68010.000
141.987	454.300	295180.000	177560.000	285750.000	4520.000	67750.000
142.781	456.500	292980.000	178980.000	259310.000	4200.000	67880.000
143.604	458.800	289780.000	178020.000	241780.000	4670.000	68790.000
144.397	461.100	291720.000	180760.000	230030.000	4440.000	68010.000
145.193	463.700	287390.000	181280.000	224820.000	4330.000	68820.000
145.986	466.000	286140.000	183790.000	219480.000	4460.000	69620.000
146.781	468.300	286870.000	183000.000	215920.000	4280.000	69490.000
147.576	470.600	283830.000	183660.000	213240.000	4380.000	70370.000
148.372	473.200	283420.000	185180.000	210890.000	4580.000	70430.000
149.167	475.500	283410.000	184610.000	210320.000	4160.000	69890.000
149.961	477.800	284960.000	184470.000	207010.000	4350.000	71020.000
150.754	480.000	281810.000	188220.000	204210.000	4600.000	71040.000
151.549	482.300	277660.000	187230.000	203440.000	4420.000	71510.000
152.346	484.600	278510.000	189240.000	202920.000	4510.000	71820.000
153.216	487.600	280740.000	188510.000	200480.000	4850.000	72250.000
154.071	489.500	279950.000	190460.000	199430.000	4680.000	72470.000
154.944	492.500	278390.000	189630.000	198970.000	4770.000	72230.000
155.780	495.100	283870.000	191530.000	197190.000	4710.000	72930.000
156.574	497.400	280800.000	191960.000	195560.000	4460.000	73360.000
157.371	499.000	279190.000	193210.000	193760.000	4780.000	74000.000
158.165	499.000	280200.000	193190.000	194750.000	4910.000	73010.000
159.085	499.000	284730.000	193560.000	192740.000	4650.000	73550.000
159.944	499.000	280780.000	193380.000	191370.000	4500.000	73960.000
160.738	499.000	279100.000	195700.000	191430.000	4990.000	74890.000
161.533	499.000	278240.000	195880.000	188280.000	4730.000	74400.000
162.330	0.000	281210.000	198220.000	191270.000	4990.000	74330.000
163.126	0.000	282460.000	198570.000	189500.000	4810.000	75700.000
163.923	0.000	282170.000	199390.000	189540.000	5000.000	75480.000
164.719	0.000	279680.000	199130.000	187660.000	4840.000	75390.000
165.517	0.000	285020.000	199600.000	188300.000	4910.000	75940.000
166.314	0.000	284110.000	201190.000	187610.000	4930.000	75500.000
167.132	0.000	287180.000	202430.000	186950.000	4930.000	77540.000
167.927	0.000	284550.000	201160.000	185620.000	4860.000	76450.000
168.724	0.000	282680.000	201770.000	186840.000	4940.000	77280.000
169.546	0.000	287210.000	204910.000	185420.000	5040.000	77210.000
170.344	0.000	285950.000	203260.000	186690.000	4990.000	76890.000
171.142	0.000	283440.000	204970.000	185110.000	5150.000	77200.000
171.939	0.000	282930.000	206890.000	183520.000	4980.000	78130.000
172.735	0.000	284200.000	206280.000	183600.000	5050.000	77660.000
173.531	0.000	282680.000	206960.000	184450.000	4900.000	77970.000
174.346	0.000	282680.000	208480.000	182480.000	5100.000	79320.000
175.143	0.000	282580.000	208760.000	183140.000	5160.000	79230.000
175.939	0.000	282150.000	209870.000	181630.000	5120.000	78780.000
176.736	0.000	276980.000	211120.000	182510.000	5270.000	79060.000
177.532	0.000	280510.000	210760.000	181840.000	5300.000	79370.000
178.337	0.000	281830.000	212050.000	182390.000	5080.000	80070.000
179.131	0.000	279780.000	213180.000	181220.000	5360.000	80060.000
179.928	0.000	278640.000	211010.000	182470.000	5170.000	79380.000
180.730	0.000	278880.000	213650.000	181600.000	5070.000	79710.000
181.525	0.000	282250.000	214730.000	182370.000	5360.000	79750.000
182.319	0.000	277550.000	214280.000	180800.000	5460.000	80610.000
183.114	0.000	281670.000	215320.000	182350.000	5360.000	81960.000
183.908	0.000	284560.000	216210.000	182510.000	5410.000	81760.000
184.701	0.000	281810.000	215710.000	182780.000	5370.000	81620.000
185.497	0.000	281500.000	218400.000	182470.000	5320.000	81640.000
186.304	0.000	283230.000	218600.000	183440.000	5360.000	81910.000
187.116	0.000	284520.000	219870.000	182890.000	5370.000	82270.000
187.911	0.000	281030.000	218700.000	182720.000	5460.000	83300.000
188.705	0.000	282090.000	220260.000	181660.000	5780.000	84020.000
189.497	0.000	283300.000	221210.000	182870.000	5580.000	82020.000
190.290	0.000	279530.000	220090.000	180940.000	5450.000	84290.000
191.083	0.000	276520.000	221920.000	182960.000	5450.000	83940.000
191.876	0.000	278890.000	222030.000	182190.000	5710.000	84790.000
192.673	0.000	280390.000	224390.000	182230.000	5750.000	83810.000
193.470	0.000	275630.000	222680.000	182420.000	5460.000	84300.000
194.262	0.000	277660.000	225920.000	180970.000	5650.000	84470.000
195.060	0.000	276480.000	224540.000	184130.000	5730.000	85840.000
195.857	0.000	279590.000	225770.000	182440.000	5300.000	85610.000
196.653	0.000	278920.000	227220.000	182620.000	5510.000	85680.000
197.449	0.000	278660.000	227030.000	183590.000	5430.000	85360.000
198.246	0.000	279750.000	229320.000	184930.000	5700.000	85210.000
199.043	0.000	280490.000	229220.000	185430.000	5810.000	87040.000
199.838	0.000	280040.000	230260.000	181260.000	5860.000	86430.000
200.635	0.000	279230.000	229610.000	183000.000	5710.000	87200.000
201.431	0.000	279320.000	231100.000	184630.000	5890.000	88690.000
202.228	0.000	280360.000	232100.000	184450.000	5790.000	87410.000
203.024	0.000	278880.000	233970.000	184140.000	5630.000	87260.000
203.819	0.000	278550.000	230610.000	184910.000	5560.000	87780.000
204.615	0.000	277860.000	229160.000	183430.000	5720.000	88920.000
205.413	0.000	277460.000	234090.000	184010.000	5750.000	88080.000
206.210	0.000	277590.000	233660.000	185430.000	5800.000	88370.000
207.007	0.000	278060.000	235900.000	184610.000	6140.000	89640.000
207.804	0.000	275600.000	233920.000	185740.000	6000.000	87380.000
208.601	0.000	275100.000	236190.000	185650.000	5630.000	89270.000
209.398	0.000	272910.000	236120.000	185790.000	5820.000	90240.000
210.196	0.000	275350.000	236590.000	185420.000	5830.000	90090.000
210.993	0.000	274180.000	238240.000	186450.000	5830.000	89480.000
211.789	0.000	273760.000	238400.000	186980.000	6100.000	89210.000
212.585	0.000	278010.000	237220.000	188220.000	5580.000	90100.000
213.383	0.000	274020.000	239720.000	187980.000	6130.000	91220.000
214.179	0.000	277150.000	241000.000	188140.000	5940.000	90640.000
214.976	0.000	276390.000	239200.000	188090.000	6120.000	91270.000
215.774	0.000	277700.000	240890.000	187170.000	5840.000	91090.000
216.586	0.000	278940.000	243250.000	188270.000	6220.000	91550.000
217.383	0.000	278810.000	242570.000	188950.000	5900.000	91120.000
218.177	0.000	281230.000	243410.000	190090.000	6160.000	91490.000
218.974	0.000	276210.000	242870.000	189570.000	5880.000	92480.000
219.774	0.000	282120.000	242440.000	189590.000	6050.000	92050.000
220.570	0.000	278940.000	243120.000	191210.000	6120.000	92910.000
