Mon, Jul 24, 2017	5:35 PM
 Notes: HOAc_4-07_15s_724_2 masses
 waiting time: 50.000
 time(ms)	 temp (K)	 MS1=61.297	 MS2=44.784	 MS3=28.250	 MS4=44.784	 MS5=61.297	 MS6=31.397	 MS7=68.640	 MS8=90.000
0.000	90.800	127000.000	137610.000
0.318	90.800	126300.000	138090.000
0.633	90.700	128600.000	140780.000
0.951	90.800	132900.000	141550.000
1.295	90.800	129700.000	142400.000
1.729	90.800	127100.000	141850.000
2.043	90.800	128400.000	141860.000
2.356	90.800	130500.000	141350.000
2.674	90.800	129100.000	144120.000
2.990	90.800	129500.000	143950.000
3.307	90.800	130000.000	143550.000
3.624	90.700	130200.000	142980.000
3.940	90.800	130100.000	144170.000
4.255	90.800	131200.000	142960.000
4.572	90.800	129600.000	144990.000
4.889	90.800	130900.000	142560.000
5.204	90.800	129200.000	143920.000
5.521	90.800	130300.000	143640.000
5.836	90.700	128200.000	144270.000
6.153	90.700	128000.000	145500.000
6.470	90.800	129800.000	144810.000
6.787	90.800	127800.000	147410.000
7.105	90.900	127800.000	146120.000
7.421	91.000	128500.000	147540.000
7.737	91.100	127600.000	150060.000
8.054	91.200	127900.000	153820.000
8.371	91.400	127700.000	168130.000
8.688	91.700	136700.000	169410.000
9.004	91.900	336600.000	249430.000
9.322	92.300	865800.000	223940.000
9.636	92.700	443700.000	203450.000
9.953	93.200	302000.000	195740.000
10.269	93.900	249800.000	192540.000
10.585	94.600	250300.000	199140.000
10.901	95.400	323700.000	214560.000
11.218	96.200	483700.000	234380.000
11.536	97.200	684400.000	248750.000
11.850	97.800	787000.000	257890.000
12.167	98.900	771000.000	254470.000
12.482	100.100	704000.000	251060.000
12.796	101.300	629300.000	245390.000
13.111	102.500	560000.000	241330.000
13.428	103.700	494200.000	234730.000
13.747	104.900	443100.000	224430.000
14.061	105.700	401700.000	222100.000
14.378	106.900	362500.000	217350.000
14.692	108.100	340100.000	216080.000
15.009	109.200	313300.000	212900.000
15.328	110.400	294600.000	209600.000
15.642	111.500	279900.000	205890.000
15.958	112.600	268000.000	205380.000
16.274	113.300	255600.000	203430.000
16.590	114.400	249600.000	204410.000
16.907	115.400	241600.000	202200.000
17.223	116.400	234200.000	203780.000
17.537	117.300	231300.000	200780.000
17.852	118.000	225600.000	201860.000
18.168	119.200	221100.000	200070.000
18.483	120.100	218000.000	199820.000
18.798	120.700	218200.000	198420.000
19.114	121.600	216600.000	198270.000
19.429	122.500	221000.000	198290.000
19.744	123.400	218400.000	196470.000
20.059	124.300	223500.000	197260.000
20.374	125.200	227300.000	197130.000
20.690	125.500	234400.000	196410.000
21.006	126.700	240600.000	199010.000
21.323	127.700	250100.000	201130.000
21.641	128.600	258200.000	201220.000
21.957	129.500	268500.000	201240.000
22.272	130.400	279900.000	203840.000
22.589	131.300	285300.000	203450.000
22.903	132.300	288200.000	205470.000
23.221	133.200	288000.000	204910.000
23.536	134.200	283600.000	204950.000
23.852	134.800	274500.000	202740.000
24.170	135.800	258300.000	201710.000
24.485	136.800	242000.000	200720.000
24.802	137.800	225000.000	197430.000
25.117	138.800	210200.000	196650.000
25.435	139.400	201800.000	195200.000
25.752	140.700	197600.000	193210.000
26.069	141.700	193800.000	194030.000
26.384	142.300	189800.000	192340.000
26.700	143.300	188600.000	193980.000
27.015	144.300	188800.000	191420.000
27.331	145.300	189400.000	192750.000
27.647	146.300	192300.000	192340.000
27.963	147.300	197300.000	195050.000
28.279	148.200	200500.000	194130.000
28.595	149.200	205900.000	197370.000
28.912	149.900	212900.000	201560.000
29.228	150.800	213700.000	202890.000
29.545	151.800	209400.000	199760.000
29.862	152.800	197800.000	191500.000
30.179	153.800	184000.000	187660.000
30.495	154.800	179600.000	185470.000
30.810	155.400	177600.000	185560.000
31.127	156.700	180800.000	185760.000
31.443	157.300	180800.000	184510.000
31.758	158.300	182600.000	184220.000
32.075	159.300	189700.000	185330.000
32.393	160.200	195700.000	188290.000
32.710	161.200	202800.000	188340.000
33.027	162.200	214100.000	191180.000
33.342	163.100	227200.000	191930.000
33.659	163.700	246100.000	195920.000
33.974	165.000	266800.000	197900.000
34.292	165.700	295700.000	201960.000
34.608	166.700	330000.000	207690.000
34.924	167.700	378100.000	217110.000
35.240	168.600	437200.000	225360.000
35.557	169.600	512100.000	233850.000
35.873	170.300	596000.000	242430.000
36.189	171.500	703500.000	255860.000
36.507	172.500	827200.000	271360.000
36.826	173.100	993000.000	290400.000
37.142	174.100	1192000.000	316830.000
37.460	175.100	1460200.000	347770.000
37.777	176.100	1743900.000	383510.000
38.094	177.000	2081200.000	422960.000
38.411	178.000	2502500.000	472470.000
38.728	179.000	3026800.000	535340.000
39.045	180.000	3671400.000	604330.000
39.361	181.000	4364300.000	679350.000
39.678	181.600	5113000.000	755640.000
39.995	182.600	5907300.000	841960.000
40.313	183.500	6735400.000	928880.000
40.629	184.500	7543700.000	1008480.000
40.946	185.500	8318200.000	1083220.000
41.263	186.100	8961000.000	1139540.000
41.579	187.100	9505600.000	1192000.000
41.897	188.100	10056700.000	1238450.000
42.214	189.100	10558000.000	1285050.000
42.531	190.000	10956600.000	1314970.000
42.848	191.000	11003200.000	1300870.000
43.165	192.000	10551700.000	1234790.000
43.481	192.900	9525500.000	1114820.000
43.799	193.900	8004700.000	969120.000
44.117	194.600	6283800.000	802830.000
44.434	195.900	4527000.000	649160.000
44.753	196.500	3045200.000	531450.000
45.066	197.500	2173900.000	469750.000
45.384	198.500	1765500.000	439500.000
45.701	199.400	1545900.000	418670.000
46.016	200.400	1385600.000	398010.000
46.334	201.400	1259000.000	382260.000
46.651	202.400	1156000.000	372540.000
46.968	203.400	1076100.000	362500.000
47.285	204.000	1006800.000	350300.000
47.601	205.000	952300.000	344350.000
47.917	205.900	901400.000	339780.000
48.232	206.900	859800.000	333720.000
48.551	207.900	825200.000	327230.000
48.866	208.900	791600.000	321110.000
49.184	209.900	761800.000	317070.000
49.500	210.800	740600.000	313960.000
49.818	211.800	709200.000	308940.000
50.133	212.500	686200.000	305520.000
50.449	213.400	666700.000	302590.000
50.764	214.400	650900.000	298160.000
51.079	215.400	630000.000	296220.000
51.396	216.400	612400.000	295660.000
51.712	217.400	603800.000	291590.000
52.028	218.300	587200.000	290220.000
52.345	219.000	579300.000	288130.000
52.662	220.000	563200.000	287080.000
52.979	220.900	552100.000	287440.000
53.294	221.900	538100.000	283950.000
53.610	222.900	527600.000	280730.000
53.925	223.900	521000.000	279950.000
54.241	224.800	510200.000	280200.000
54.556	225.800	502000.000	276260.000
54.873	226.800	494300.000	274860.000
55.189	227.400	483100.000	272460.000
55.504	228.400	478100.000	271080.000
55.820	229.400	471000.000	269180.000
56.137	230.300	460700.000	269620.000
56.454	231.300	453800.000	265200.000
56.770	232.300	446900.000	263920.000
57.087	232.900	440000.000	261760.000
57.402	233.900	434200.000	262470.000
57.716	234.900	428500.000	257910.000
58.031	235.800	424300.000	259740.000
58.347	236.800	416700.000	258580.000
58.664	237.800	413400.000	257550.000
58.979	238.800	409000.000	254650.000
59.295	239.800	404600.000	255890.000
59.612	240.700	400300.000	254920.000
59.926	241.400	396400.000	252860.000
60.242	242.400	393000.000	251970.000
60.557	243.400	387500.000	251140.000
60.873	244.300	387800.000	249960.000
61.190	245.300	382200.000	248370.000
61.505	246.300	380900.000	249510.000
61.820	246.600	378600.000	248840.000
62.137	248.300	373300.000	246920.000
62.453	248.900	373100.000	247560.000
62.769	249.900	370700.000	246170.000
63.085	250.900	366800.000	244110.000
63.400	251.800	366900.000	246110.000
63.718	252.800	368500.000	243260.000
64.034	253.800	363800.000	245160.000
64.350	254.800	365500.000	243860.000
64.664	255.400	364800.000	243590.000
64.981	256.400	363600.000	244440.000
65.297	257.400	360400.000	242360.000
65.613	258.400	364200.000	245690.000
65.928	259.300	363500.000	244840.000
66.245	260.300	364500.000	243600.000
66.561	261.300	365100.000	241420.000
66.877	262.300	364100.000	241320.000
67.192	262.900	363400.000	241020.000
67.508	263.900	364000.000	240540.000
67.825	264.900	362100.000	239070.000
68.142	265.900	363000.000	239250.000
68.458	266.800	365200.000	240270.000
68.776	267.800	362900.000	242170.000
69.091	268.400	366600.000	241290.000
69.409	269.800	365000.000	243020.000
69.726	270.700	367500.000	241730.000
70.041	271.400	368700.000	238870.000
70.359	272.400	369400.000	238680.000
70.676	273.300	371200.000	240510.000
70.994	274.300	366900.000	238520.000
71.311	275.300	371300.000	241970.000
71.627	276.200	372600.000	239220.000
71.944	277.200	372900.000	241690.000
72.261	277.500	374400.000	239840.000
72.578	278.800	376000.000	238880.000
72.895	279.800	375100.000	239290.000
73.211	280.800	377800.000	236240.000
73.529	281.800	377000.000	237530.000
73.846	282.800	372400.000	239620.000
74.163	283.800	376000.000	236980.000
74.478	284.400	374800.000	239420.000
74.796	285.700	372900.000	236230.000
75.110	286.400	373400.000	239130.000
75.428	287.300	372200.000	236800.000
75.744	288.300	373500.000	237640.000
76.062	289.300	374000.000	236440.000
76.379	290.300	368500.000	238090.000
76.696	291.300	368100.000	237080.000
77.013	292.300	366400.000	237380.000
77.330	293.200	365500.000	236400.000
77.646	294.200	362000.000	235570.000
77.963	295.200	360600.000	236710.000
78.280	295.900	359300.000	234440.000
78.598	296.900	355100.000	233550.000
78.916	297.800	353600.000	233850.000
79.233	298.800	349900.000	233150.000
79.549	299.800	350100.000	232920.000
79.864	300.700	345100.000	231910.000
80.181	301.800	343000.000	231910.000
80.498	302.400	339400.000	229160.000
80.816	303.400	337900.000	230350.000
81.132	304.400	333400.000	228790.000
81.448	305.300	331200.000	231200.000
81.766	306.300	332200.000	230170.000
82.082	307.300	330500.000	231290.000
82.401	308.300	324800.000	229920.000
82.717	309.200	325000.000	229870.000
83.035	310.200	321900.000	229060.000
83.351	310.800	321100.000	227510.000
83.669	311.800	318900.000	228460.000
83.985	312.800	314700.000	229050.000
84.301	313.800	312600.000	227800.000
84.617	314.700	310500.000	225910.000
84.934	315.700	307600.000	228530.000
85.250	316.700	308100.000	227390.000
85.568	317.700	302900.000	226990.000
85.884	318.300	303300.000	223720.000
86.201	319.300	296700.000	225220.000
86.516	320.300	297900.000	224620.000
86.832	321.300	297200.000	222600.000
87.147	322.300	295000.000	224190.000
87.465	322.900	290700.000	223040.000
87.782	324.200	291000.000	222510.000
88.099	325.200	289900.000	220890.000
88.415	326.100	288500.000	222590.000
88.730	326.800	287700.000	221630.000
89.047	327.800	286400.000	220880.000
89.363	328.800	286200.000	221850.000
89.681	329.400	287500.000	220670.000
89.998	330.700	285600.000	219980.000
90.315	331.700	283300.000	218780.000
90.630	332.700	283000.000	219300.000
90.945	333.600	282400.000	221470.000
91.261	334.300	284300.000	219490.000
91.576	335.300	282000.000	218940.000
91.893	336.200	283700.000	219230.000
92.210	337.200	280000.000	219890.000
92.526	338.200	282900.000	218330.000
92.841	339.200	283700.000	219860.000
93.155	340.200	282900.000	219090.000
93.474	341.200	283500.000	218950.000
93.791	341.800	285300.000	218770.000
94.107	342.800	284400.000	219160.000
94.421	343.700	287000.000	216270.000
94.738	344.700	284500.000	219320.000
95.054	345.700	287500.000	218460.000
95.368	346.700	287800.000	218830.000
95.686	347.600	290600.000	219520.000
96.000	348.300	292200.000	219660.000
96.316	349.300	292200.000	219980.000
96.631	350.300	297700.000	219300.000
96.948	351.200	294000.000	220570.000
97.263	352.200	299500.000	219310.000
97.580	353.200	297700.000	220780.000
97.895	353.900	303500.000	220210.000
98.210	354.900	304900.000	219620.000
98.526	355.800	303300.000	221200.000
98.841	356.800	309900.000	221980.000
99.155	357.800	312700.000	223470.000
99.470	358.800	313400.000	221560.000
99.785	359.400	316200.000	222110.000
100.102	360.700	317500.000	222910.000
100.416	361.700	318500.000	224270.000
100.734	362.300	320900.000	223990.000
101.049	363.300	322900.000	224250.000
101.363	364.300	328000.000	225110.000
101.679	365.300	328600.000	225990.000
101.995	366.300	332000.000	227200.000
102.312	367.200	335800.000	226970.000
102.628	368.200	337900.000	226300.000
102.943	369.200	336800.000	226860.000
103.259	370.200	338900.000	226480.000
103.575	370.800	342900.000	226730.000
103.890	371.800	344300.000	225610.000
104.206	372.800	345700.000	225730.000
104.523	373.800	349200.000	226590.000
104.840	374.400	353900.000	228970.000
105.158	375.700	353800.000	229630.000
105.474	376.700	357600.000	228420.000
105.789	377.700	356800.000	228730.000
106.107	378.300	360700.000	228650.000
106.421	379.300	363200.000	229360.000
106.738	380.300	363400.000	231020.000
107.053	381.200	368600.000	233050.000
107.370	382.200	373000.000	232330.000
107.689	383.200	371900.000	231390.000
108.005	383.900	373100.000	231910.000
108.321	385.200	374300.000	235470.000
108.638	385.800	377900.000	235860.000
108.953	386.800	382100.000	237890.000
109.271	387.800	378800.000	238790.000
109.586	388.700	384600.000	239080.000
109.903	389.700	383600.000	238590.000
110.219	390.700	386400.000	237640.000
110.537	391.700	386100.000	238770.000
110.855	392.300	386200.000	237320.000
111.170	393.300	388900.000	240100.000
111.487	394.200	389400.000	240300.000
111.802	395.200	391500.000	240850.000
112.119	396.200	392900.000	240850.000
112.436	397.200	391200.000	242100.000
112.752	398.200	397900.000	243590.000
113.068	399.100	395700.000	243970.000
113.386	399.800	392500.000	244930.000
113.702	400.800	395000.000	243710.000
114.017	401.700	395600.000	248530.000
114.334	402.700	394500.000	245070.000
114.650	403.700	391500.000	248900.000
114.967	404.700	391800.000	248060.000
115.283	405.600	389800.000	250650.000
115.599	406.300	387000.000	253100.000
115.915	407.600	389800.000	249770.000
116.233	408.200	381500.000	249250.000
116.550	409.200	381800.000	251140.000
116.867	410.200	381200.000	255830.000
117.184	411.200	377800.000	256810.000
117.500	412.200	376600.000	257230.000
117.817	413.100	372600.000	261760.000
118.135	414.100	369000.000	263590.000
118.452	414.800	364400.000	263390.000
118.770	416.100	361900.000	268350.000
119.088	416.700	361700.000	271910.000
119.405	417.700	359800.000	275080.000
119.722	418.600	354800.000	276510.000
120.038	419.600	353000.000	279680.000
120.355	420.600	344600.000	283130.000
120.672	421.200	338200.000	282930.000
120.990	422.500	340300.000	291030.000
121.306	423.200	340600.000	295060.000
121.623	424.200	331600.000	295870.000
121.940	425.100	327200.000	304360.000
122.256	426.100	326700.000	310800.000
122.573	427.100	323700.000	318010.000
122.889	428.100	321400.000	327190.000
123.206	429.100	319800.000	334290.000
123.522	430.000	318500.000	340860.000
123.839	430.700	313500.000	346380.000
124.154	432.000	308800.000	371720.000
124.471	432.600	313100.000	379180.000
124.789	433.600	307000.000	390990.000
125.106	434.600	303800.000	410070.000
125.423	435.600	304300.000	423260.000
125.738	436.500	306900.000	445010.000
126.055	437.500	305000.000	463500.000
126.373	438.500	303200.000	475740.000
126.690	439.100	300900.000	504430.000
127.007	440.100	301700.000	525790.000
127.324	441.100	301700.000	561840.000
127.642	442.000	304300.000	596920.000
127.959	443.000	305200.000	649790.000
128.278	443.900	302100.000	713440.000
128.596	444.600	303100.000	835060.000
128.910	445.900	306100.000	1010160.000
129.227	446.900	305700.000	1136390.000
129.542	447.500	306700.000	1202410.000
129.859	448.500	304800.000	1260620.000
130.176	449.500	303000.000	1369050.000
130.491	450.500	304200.000	1459580.000
130.807	451.400	303300.000	1492050.000
131.123	452.400	302800.000	1428150.000
131.440	453.400	302200.000	1205210.000
131.757	454.400	300500.000	880880.000
132.072	455.000	294300.000	615840.000
132.388	456.000	287900.000	499310.000
132.704	456.900	288700.000	450390.000
133.020	457.900	287300.000	426700.000
133.335	458.900	285800.000	416060.000
133.650	459.900	285300.000	407530.000
133.966	460.900	288100.000	399650.000
134.284	461.500	286000.000	392630.000
134.599	462.500	287300.000	392680.000
134.914	463.500	286600.000	388530.000
135.228	464.500	283800.000	384230.000
135.543	465.400	283000.000	378720.000
135.859	466.100	285500.000	379810.000
136.173	467.400	283800.000	378840.000
136.489	468.400	283300.000	375060.000
136.805	469.000	282100.000	373150.000
137.122	470.000	282700.000	370860.000
137.437	471.000	285200.000	369580.000
137.753	471.900	281900.000	370290.000
138.071	472.900	280800.000	367470.000
138.386	473.900	281200.000	366580.000
138.702	474.900	280300.000	363220.000
139.017	475.800	280500.000	368840.000
139.331	476.500	278100.000	365230.000
139.648	477.400	280700.000	370080.000
139.963	478.400	281900.000	366500.000
140.279	479.400	280800.000	367360.000
140.596	480.400	280500.000	369170.000
140.912	481.000	279600.000	365990.000
141.227	482.300	281900.000	362510.000
141.544	482.900	278600.000	363200.000
141.858	484.200	278600.000	360740.000
142.173	484.900	277500.000	360710.000
142.490	485.900	276100.000	360520.000
142.806	486.800	278200.000	364150.000
143.124	487.800	277200.000	365490.000
143.440	488.800	279000.000	361190.000
143.756	489.800	276400.000	362220.000
144.072	490.800	277600.000	361040.000
144.389	491.400	275400.000	360500.000
144.705	492.400	275100.000	358630.000
145.021	493.400	277000.000	357250.000
145.337	494.300	276100.000	356840.000
145.653	495.300	280700.000	361730.000
145.969	496.300	275000.000	357040.000
146.285	497.300	276100.000	353830.000
146.600	497.900	274700.000	356260.000
146.918	498.900	277100.000	349740.000
147.234	499.900	274600.000	344990.000
147.551	500.800	272300.000	350120.000
147.865	501.500	273200.000	346300.000
148.182	502.800	272400.000	343700.000
148.498	503.800	272100.000	345010.000
148.816	504.700	270200.000	341440.000
149.133	505.400	269400.000	335250.000
149.451	506.700	271700.000	337120.000
149.767	507.300	266500.000	332500.000
150.084	508.300	271800.000	336440.000
150.400	509.300	268400.000	333710.000
150.717	510.300	267900.000	333900.000
151.032	511.300	271100.000	330170.000
151.349	512.200	268300.000	325360.000
151.667	513.200	263900.000	332010.000
151.983	513.900	265600.000	320430.000
152.301	514.800	261400.000	320900.000
152.618	515.800	265100.000	317260.000
152.933	516.800	265300.000	315870.000
153.250	517.700	263100.000	315720.000
153.568	518.700	271400.000	318490.000
153.883	519.300	265100.000	315360.000
154.201	520.600	263700.000	314210.000
154.517	521.300	262900.000	311040.000
154.834	522.200	260900.000	309660.000
155.150	523.200	262600.000	308310.000
155.467	524.200	260300.000	304560.000
155.783	525.200	262100.000	306110.000
156.100	525.800	261200.000	307210.000
156.417	527.100	259100.000	300820.000
156.733	528.100	259100.000	301120.000
157.049	529.000	260000.000	311330.000
157.367	529.700	261500.000	304780.000
157.684	530.700	260300.000	303250.000
158.002	531.600	262000.000	300060.000
158.318	532.600	258500.000	298880.000
158.635	533.600	258500.000	299310.000
158.952	534.500	258300.000	294870.000
159.269	535.200	258000.000	297590.000
159.586	536.100	258400.000	297290.000
159.902	537.400	255900.000	293490.000
160.221	538.100	253200.000	293710.000
160.537	539.100	255600.000	291480.000
160.853	540.000	254300.000	290800.000
161.171	541.000	254500.000	289420.000
161.486	542.000	255100.000	292640.000
161.802	542.900	255400.000	286710.000
162.117	543.900	255300.000	289390.000
162.434	544.900	255000.000	284020.000
162.753	545.500	253600.000	286670.000
163.070	546.500	253500.000	281170.000
163.387	547.500	251800.000	281690.000
163.703	548.400	252000.000	284670.000
164.019	549.400	251700.000	282690.000
164.335	550.400	250100.000	280560.000
164.652	551.300	249500.000	281140.000
164.970	552.300	253900.000	282510.000
165.284	552.900	249200.000	282840.000
165.601	553.900	250700.000	278270.000
165.918	554.900	248100.000	279370.000
166.234	555.900	250700.000	279710.000
166.552	556.200	250500.000	278410.000
166.870	557.800	248900.000	279850.000
167.185	558.800	249800.000	274930.000
167.502	559.700	248200.000	271430.000
167.819	560.400	245200.000	271900.000
168.136	561.300	244300.000	269890.000
168.454	562.300	244100.000	277360.000
168.771	563.300	249100.000	272600.000
169.088	564.200	246800.000	270570.000
169.403	565.200	242400.000	269300.000
169.719	566.200	245000.000	267650.000
170.033	566.800	242200.000	274790.000
170.349	568.100	247000.000	269410.000
170.665	568.800	243800.000	271480.000
170.981	569.800	241600.000	265990.000
171.297	570.700	237900.000	273530.000
171.613	571.700	246100.000	272590.000
171.928	572.600	240200.000	266410.000
172.244	573.600	238200.000	269080.000
172.562	574.600	243700.000	265870.000
172.877	575.200	241500.000	276050.000
173.195	576.200	247100.000	271650.000
173.509	577.200	241400.000	271280.000
173.824	578.100	243800.000	271440.000
174.141	579.100	242400.000	268780.000
174.457	580.100	242500.000	268860.000
174.772	581.100	238200.000	267110.000
175.088	581.700	241300.000	266040.000
175.403	582.700	241600.000	269700.000
175.720	583.600	238900.000	267000.000
176.035	584.600	238500.000	268900.000
176.352	585.600	239800.000	266430.000
176.668	586.500	239100.000	265160.000
176.984	587.500	238600.000	261560.000
177.299	588.400	238200.000	267600.000
177.614	589.100	239000.000	267210.000
177.930	590.000	238800.000	265710.000
178.244	591.000	235900.000	266380.000
178.560	592.000	237400.000	264270.000
178.875	593.000	234200.000	261250.000
179.192	593.600	233600.000	259570.000
179.506	594.900	232900.000	261750.000
179.825	595.800	232900.000	260150.000
180.139	596.500	232600.000	260020.000
180.455	597.400	232300.000	259130.000
180.771	598.400	233300.000	260980.000
181.087	599.400	233000.000	261510.000
181.403	600.300	234600.000	262010.000
181.718	601.300	233400.000	260900.000
182.034	602.200	231000.000	258190.000
