Fri, Mar 25, 2016	11:57 AM
 Notes: 
 waiting time: 30.000
 time(s)	 temp (K)	 MS1=2.085	 MS2=15.166	 MS3=17.074	 MS4=26.712	 MS5=41.148	 MS6=42.035	 MS7=42.992	 MS8=57.407
0.000	169.500	315.939	35.738	39.321	209.051	-4.181	60.877	-0.877	-1.243
0.787	169.500	312.117	29.030	40.769	216.546	-4.633	55.386	-1.060	-2.245
1.571	169.500	308.315	33.911	42.370	208.085	-4.056	59.929	-0.438	-1.027
2.361	169.500	318.207	33.874	38.974	210.371	-2.645	57.111	-0.743	-1.252
3.148	169.500	321.003	36.437	41.024	213.056	-4.508	61.091	-0.558	-1.457
3.936	169.600	311.812	31.876	37.312	216.245	-3.817	60.747	-0.832	-0.830
4.722	169.600	319.050	34.856	41.471	211.746	-3.943	59.569	-0.920	-1.667
5.511	169.600	311.175	35.392	39.026	206.231	-5.204	59.049	-0.710	-1.810
6.300	169.600	311.480	33.038	41.045	213.126	-4.942	59.270	-0.888	-1.214
7.088	169.600	314.777	35.920	39.032	211.907	-3.508	60.808	0.379	-1.169
7.876	169.600	312.400	31.354	42.720	213.701	-4.291	55.418	-0.391	-1.865
8.666	169.600	309.358	32.078	44.957	215.010	-3.564	57.513	-1.074	-1.393
9.456	169.700	313.280	32.629	47.341	213.937	-4.259	60.536	-1.140	-1.879
10.245	169.900	317.583	35.726	46.597	213.422	-4.068	59.261	-1.095	-0.873
11.032	170.400	314.785	35.319	42.183	220.997	-5.160	57.880	0.045	-0.989
11.818	171.500	310.110	37.412	39.306	214.356	-3.738	59.466	-0.324	-1.376
12.603	172.900	302.868	32.997	39.616	214.931	-4.919	60.047	-1.166	-1.651
13.388	174.800	309.875	35.295	45.473	213.239	-4.013	61.921	-0.304	-1.121
14.178	177.100	313.816	36.150	47.382	214.349	-2.855	61.087	-0.380	-1.123
14.964	179.800	303.704	35.282	43.758	210.262	-4.537	60.640	-1.128	-1.186
15.753	182.900	309.779	34.227	45.497	216.991	-4.179	62.466	-0.674	-0.649
16.543	186.600	313.071	34.611	45.635	215.217	-3.764	60.015	-0.161	-1.435
17.332	190.000	315.379	38.405	42.542	219.305	-3.739	61.229	-0.021	-1.375
18.123	193.500	304.049	35.566	50.520	220.020	-4.742	61.423	-0.454	-1.022
18.910	197.100	313.038	34.691	46.918	209.344	-3.329	59.437	-0.896	-1.499
19.696	200.600	314.445	36.818	48.461	211.838	-4.432	62.461	-0.670	-1.419
20.482	204.200	311.128	33.446	47.790	225.172	-3.816	62.305	-0.010	-0.838
21.269	208.400	311.849	33.887	50.437	211.045	-4.906	58.799	-0.556	-1.014
22.057	212.000	305.686	35.072	50.379	218.754	-3.898	63.761	-0.689	-0.898
22.846	215.600	311.923	38.459	51.980	215.506	-4.282	60.190	-0.353	-1.246
23.635	219.100	305.313	35.860	52.788	212.335	-2.901	61.337	-1.206	-1.222
24.423	222.700	298.695	35.907	53.947	214.559	-4.334	57.621	-1.405	-1.209
25.211	226.200	299.667	31.653	52.624	216.134	-3.322	55.623	-1.075	-1.465
26.000	230.200	310.513	39.812	51.410	215.335	-3.626	59.050	-0.991	-1.933
26.788	233.600	301.099	34.260	50.576	211.673	-4.308	59.952	-0.862	-1.126
27.571	237.000	315.860	35.749	51.263	213.334	-3.946	60.828	-1.106	-1.356
28.359	240.400	304.614	36.184	50.160	213.048	-4.489	60.238	-0.227	-1.564
29.142	243.700	315.071	31.134	51.540	220.492	-2.958	62.248	-0.129	-1.308
29.928	247.100	311.272	34.346	54.983	210.276	-3.775	61.794	-0.446	-1.447
30.716	250.500	300.218	35.102	51.185	218.438	-4.918	63.317	-0.937	-1.496
31.505	254.300	309.151	36.710	54.557	217.877	-3.350	60.422	-0.398	-1.357
32.294	257.600	306.814	36.942	60.042	216.353	-3.654	58.022	-0.707	-1.843
33.080	260.900	309.355	40.870	48.150	215.183	-4.204	58.923	0.132	-2.088
33.865	264.200	307.897	42.477	51.324	212.698	-3.944	59.079	-0.264	-1.496
34.652	267.400	313.321	32.988	53.240	224.049	-4.736	56.693	0.020	-1.326
35.439	270.700	307.971	36.127	53.669	212.282	-3.474	62.309	-0.779	-1.421
36.227	274.300	308.832	36.942	52.855	213.383	-4.633	57.852	-0.561	-1.749
37.016	277.600	314.251	41.513	54.035	216.065	-3.653	57.923	0.368	-1.074
37.803	280.800	319.429	35.174	52.941	212.046	-4.178	58.202	-0.044	-1.046
38.591	284.000	314.102	38.390	55.462	215.468	-3.432	59.333	-0.448	-0.693
39.379	287.200	309.617	32.815	50.973	216.881	-3.769	57.695	-0.051	-1.561
40.169	290.400	306.009	37.131	53.827	215.493	-4.019	59.207	-0.189	-1.554
40.961	294.100	311.701	33.264	53.379	213.618	-4.011	60.015	0.016	-1.400
41.747	297.200	306.239	35.915	54.527	219.600	-3.606	60.835	-0.518	-1.816
42.535	300.400	324.413	31.708	54.813	213.356	-4.196	61.320	-0.278	-1.563
43.321	303.500	323.538	36.109	53.339	222.249	-4.218	57.384	-0.713	-1.034
44.106	306.700	326.883	35.285	56.745	216.746	-4.291	60.653	-0.363	-1.382
44.894	309.800	330.054	34.921	50.763	219.631	-4.345	57.832	-0.630	-1.296
45.682	313.000	327.514	42.572	47.706	214.091	-3.990	56.021	-1.051	-1.690
46.468	316.600	334.720	33.181	51.488	217.526	-4.393	58.612	-1.041	-1.434
47.254	319.700	338.675	33.704	50.769	212.508	-4.702	57.403	-0.472	-1.761
48.040	322.800	332.275	33.727	48.005	210.139	-3.897	59.107	-0.389	-1.778
48.826	325.900	323.782	34.997	51.501	220.493	-3.587	58.551	0.033	-1.537
49.613	329.100	333.213	38.643	51.909	217.627	-3.168	57.731	-0.072	-0.604
50.403	332.200	338.670	37.190	53.439	211.235	-2.517	56.595	0.311	-1.223
51.190	335.700	331.539	37.999	48.599	217.162	-3.475	61.410	-0.175	-1.823
51.976	338.700	333.070	36.005	42.542	219.897	-3.938	60.945	-0.646	-1.228
52.766	341.800	337.571	36.263	51.370	215.990	-4.362	62.386	-0.031	-1.866
53.555	344.800	339.636	35.399	52.106	212.686	-4.698	58.768	-0.565	-0.658
54.342	347.900	344.407	36.211	47.940	216.528	-3.857	61.483	-0.119	-0.727
55.131	351.100	342.558	35.778	51.141	215.749	-3.310	58.529	-0.263	-1.636
55.918	354.600	342.656	36.706	52.628	215.380	-3.896	57.779	0.584	-0.553
56.705	357.700	356.801	34.683	50.066	208.646	-4.315	58.964	0.039	-1.497
57.492	360.800	336.403	37.845	55.130	209.530	-3.159	59.855	-0.132	-1.659
58.278	363.900	345.381	37.704	48.525	213.505	-3.374	58.312	0.410	-0.964
59.064	367.000	336.145	33.830	48.121	216.246	-3.165	60.182	-0.260	-1.884
59.849	370.200	351.434	35.904	47.935	214.506	-3.252	59.948	-0.488	-1.294
60.636	373.300	348.354	34.096	51.578	220.238	-3.168	59.179	-1.683	-1.260
61.421	377.000	336.815	35.962	49.244	217.933	-3.965	62.918	-0.029	-1.112
62.211	380.200	331.565	37.120	52.417	218.674	-3.833	58.688	-0.805	-1.098
62.997	383.300	332.357	38.270	52.272	218.375	-3.587	59.033	0.734	-1.290
63.786	386.400	328.958	35.537	52.348	214.636	-3.287	58.345	-0.567	-1.054
64.574	389.500	321.708	34.824	46.125	223.499	-3.938	55.474	-0.212	-0.943
65.364	392.600	327.103	35.786	51.090	214.181	-3.607	60.468	0.579	-1.178
66.153	396.100	333.246	32.998	50.110	228.339	-3.872	59.835	-0.230	-2.344
66.940	399.200	320.929	39.028	49.824	223.751	-4.173	60.605	-0.120	-1.761
67.726	402.300	325.540	34.435	52.526	224.868	-3.881	59.303	-0.721	-1.673
68.514	405.400	309.486	35.397	49.640	221.338	-4.159	61.195	-0.409	-0.261
69.304	408.400	321.102	38.382	50.896	228.034	-3.453	59.642	-0.323	-1.085
70.092	411.500	317.184	34.742	51.293	226.220	-2.917	58.111	-0.526	-1.262
70.879	414.900	319.849	35.705	54.359	223.041	-3.523	58.737	0.024	-0.781
71.665	417.900	313.379	39.126	52.441	226.351	-3.857	59.888	-1.101	-1.365
72.452	421.000	326.281	37.293	51.129	231.565	-3.927	59.652	-0.570	-0.810
73.241	424.000	315.009	32.634	51.372	224.209	-4.213	56.380	-0.843	-1.392
74.027	427.000	317.203	36.689	49.168	219.385	-2.646	57.890	0.116	-1.793
74.815	430.000	317.359	39.893	56.566	228.296	-4.656	59.109	0.523	-1.363
75.602	433.100	318.176	32.782	51.234	229.020	-3.638	59.047	-0.540	-0.849
76.391	436.500	314.651	37.653	50.716	233.211	-4.619	60.528	-0.662	-1.053
77.177	439.600	301.336	35.380	52.296	234.913	-3.631	61.050	-1.776	-1.106
77.963	442.700	314.272	36.638	52.925	233.084	-3.711	58.548	0.003	-0.679
78.756	445.800	319.097	39.397	50.075	240.173	-3.170	58.577	0.023	-1.636
79.546	448.800	322.010	42.523	54.634	236.259	-3.380	59.122	-0.584	-0.987
80.334	451.900	307.015	38.736	50.402	243.679	-4.125	57.207	0.634	-1.103
81.122	455.400	315.724	37.763	52.297	240.950	-3.786	60.468	-0.316	-1.701
81.909	458.400	309.782	36.660	48.061	258.687	-3.925	62.349	-0.063	-0.491
82.695	461.500	303.407	36.514	50.793	248.941	-4.158	56.489	-0.208	-1.812
83.480	464.600	309.180	39.405	56.750	258.068	-4.206	58.131	-1.104	-0.703
84.265	467.600	309.409	39.331	52.610	249.656	-4.081	60.201	-0.432	-2.005
85.057	470.700	305.321	38.277	49.710	257.484	-3.151	59.013	-0.204	-1.514
85.846	474.300	297.881	33.440	48.323	253.829	-3.842	65.128	-0.002	-2.055
86.635	477.400	309.998	34.690	48.910	260.356	-3.254	62.536	-0.227	-1.430
87.419	480.500	310.262	41.123	51.587	261.758	-3.482	58.878	-0.627	-0.725
88.205	483.600	306.434	39.678	55.087	257.531	-3.210	58.847	0.206	-1.773
88.991	486.700	310.527	38.316	50.498	262.180	-3.164	57.627	-0.590	-1.196
89.782	489.800	308.361	39.526	49.331	259.757	-3.777	60.330	-0.264	-0.619
90.569	493.400	307.595	38.361	53.795	261.235	-3.706	59.316	-1.022	-1.464
91.356	496.500	301.923	40.785	52.245	258.373	-3.377	58.578	-0.233	-2.003
92.144	499.600	303.928	38.354	52.306	255.812	-4.524	59.302	-0.225	-1.309
92.933	502.700	300.543	41.725	54.359	257.399	-2.778	58.651	-0.246	-0.975
93.721	505.700	298.818	40.842	49.734	250.575	-3.977	62.362	-0.626	-1.399
94.511	508.700	301.080	36.135	49.436	258.893	-3.237	56.483	-0.782	-0.929
95.301	512.200	306.659	36.269	49.032	250.241	-2.882	57.726	-0.626	-1.642
96.087	515.300	302.539	41.099	51.133	250.386	-3.869	60.480	-0.426	-1.671
96.878	518.400	306.947	39.661	57.963	244.498	-3.448	58.286	-0.580	-1.265
97.667	521.500	312.513	34.167	50.946	246.150	-3.254	58.959	0.078	-0.611
98.452	524.600	307.005	35.674	56.083	244.039	-2.575	56.646	-0.963	-1.035
99.239	527.600	306.907	40.370	52.900	243.818	-3.628	56.919	-1.149	-1.617
100.022	530.700	312.087	36.940	54.930	238.634	-3.313	59.527	-0.977	-1.963
100.807	534.200	305.151	39.098	47.798	234.931	-3.584	58.897	-0.551	-1.013
101.595	537.200	306.536	34.910	50.413	242.447	-3.812	60.561	-0.035	-0.800
102.381	540.300	302.834	33.863	52.676	240.855	-3.522	61.833	-0.554	-1.372
103.168	543.400	289.633	33.864	55.960	229.831	-3.029	58.805	-0.094	-1.132
103.954	546.400	296.108	35.478	49.483	233.141	-3.638	58.806	-0.297	-0.954
104.741	549.500	305.715	35.132	56.084	229.824	-3.710	60.173	0.157	-1.046
105.530	553.000	301.172	33.869	58.043	226.329	-3.799	59.072	0.618	-1.819
106.322	556.100	302.825	39.376	51.987	236.168	-3.238	57.728	-0.545	-1.263
107.109	559.100	293.421	36.334	54.910	235.802	-3.183	56.513	-0.171	-1.472
107.899	562.200	306.120	34.952	53.727	220.870	-3.527	55.568	0.422	-1.477
108.685	565.200	303.097	38.213	53.583	227.832	-3.886	59.438	-0.832	-2.333
109.474	568.300	300.631	39.418	52.726	232.462	-2.815	56.275	0.112	-1.441
110.260	571.800	302.542	35.329	53.850	233.979	-2.922	58.457	-0.242	-0.700
111.048	575.000	304.689	34.887	55.289	230.111	-3.441	57.742	-0.916	-0.807
111.831	578.100	301.621	35.789	56.675	220.796	-3.205	58.907	-0.204	-2.280
112.618	581.100	299.587	39.662	51.295	231.699	-4.694	58.815	-0.321	-1.617
113.405	584.200	310.868	31.457	55.397	223.425	-3.693	61.890	-0.345	-1.816
114.193	587.300	300.378	39.129	52.531	232.918	-4.208	57.061	-0.799	-1.339
114.980	590.300	307.897	37.477	56.117	235.287	-2.963	60.456	-0.273	-0.539
115.767	593.800	302.514	32.705	53.191	227.113	-3.205	58.290	-0.907	-1.156
116.549	596.900	307.565	37.492	49.309	234.234	-3.131	57.488	-0.120	-2.044
117.332	600.000	299.201	39.142	57.426	235.013	-3.572	59.366	0.043	-0.996
118.116	603.200	304.883	35.357	53.802	227.091	-3.052	57.662	-0.532	-1.656
118.906	606.200	304.264	38.193	56.490	230.555	-3.514	58.780	-0.078	-0.448
119.695	609.200	293.897	32.976	55.730	231.289	-4.181	58.048	0.040	-1.455
120.480	612.200	300.833	35.364	57.029	226.627	-3.708	56.598	-0.535	-1.177
121.260	615.700	305.382	39.897	55.765	234.823	-3.760	59.324	-0.053	-1.820
122.044	618.800	297.467	39.238	54.462	232.443	-3.442	60.749	-1.038	-1.700
122.833	621.900	299.601	36.290	53.654	227.763	-2.699	54.652	-0.532	-1.281
123.625	625.000	295.972	37.295	56.902	227.042	-3.219	59.817	0.371	-1.292
124.414	628.100	294.631	39.466	62.692	227.470	-2.929	59.175	-0.748	-1.408
125.202	631.200	295.570	37.497	55.965	230.901	-2.831	53.772	-0.581	-1.595
125.990	634.600	300.230	35.588	57.332	225.611	-3.839	61.496	-0.423	-1.076
126.778	637.700	296.769	37.290	57.389	227.016	-3.337	56.575	-1.065	-0.799
127.566	640.700	294.499	35.446	54.255	233.958	-3.505	55.521	-0.108	-0.991
128.353	643.800	296.080	35.946	56.256	228.188	-3.476	56.296	-0.390	-1.087
129.138	646.900	297.283	32.016	58.279	224.079	-3.755	59.501	-0.619	-2.244
129.927	650.000	296.894	40.425	52.830	228.914	-4.011	61.471	-1.047	-0.460
130.716	653.600	312.465	38.904	54.905	230.640	-3.640	58.681	-0.409	-1.677
131.504	656.700	296.774	39.254	58.669	236.095	-3.015	54.587	-0.656	-0.454
132.291	659.800	296.409	35.593	52.887	229.235	-3.374	61.438	-0.931	-1.302
133.078	662.800	296.803	35.591	54.106	226.080	-3.619	56.833	0.189	-1.937
133.863	665.900	291.719	36.687	58.157	235.248	-3.730	57.547	-0.373	-1.687
134.648	669.000	303.646	35.920	62.019	232.452	-2.904	61.267	-0.278	-1.154
135.435	672.100	294.951	40.926	55.064	231.274	-3.020	58.413	-0.647	-1.226
136.223	675.700	294.562	37.498	62.946	232.346	-3.923	58.721	0.010	-2.104
137.009	678.800	304.039	34.557	56.805	234.721	-3.210	59.450	-0.065	-1.609
137.797	681.900	300.990	34.239	63.033	239.991	-3.181	60.405	-0.763	-1.156
138.585	685.000	304.839	41.361	59.138	232.187	-4.547	59.429	-1.286	-0.732
139.373	688.000	294.408	35.719	62.658	237.312	-3.783	57.880	-1.052	-1.663
140.154	691.000	295.132	36.750	58.203	232.173	-3.349	57.594	-0.652	-0.895
140.941	694.100	305.860	38.511	60.423	245.162	-3.885	57.332	-0.081	-1.649
141.731	697.600	300.454	39.373	59.327	227.863	-3.541	56.816	-0.763	-1.436
142.519	700.700	303.758	37.271	59.647	233.010	-3.062	56.874	-0.052	-1.423
143.312	703.800	298.262	38.292	60.569	241.982	-3.592	60.977	-0.603	-1.131
144.101	706.800	297.707	41.068	57.750	238.604	-2.296	59.341	0.709	-0.902
144.889	709.800	292.152	41.603	57.239	236.999	-2.884	60.313	0.547	-1.306
145.678	713.300	295.595	37.333	61.230	235.223	-3.344	60.760	-0.114	-0.745
146.467	716.400	299.412	35.644	59.139	235.449	-2.055	57.844	-0.130	-0.737
147.254	719.500	288.238	37.684	63.727	245.266	-2.960	58.100	-0.248	-1.886
148.041	722.500	300.294	39.034	60.851	231.916	-3.661	60.822	-0.558	-1.770
148.829	725.600	298.360	40.278	59.728	237.577	-3.158	58.115	0.363	-1.312
149.616	728.700	307.434	37.597	63.414	235.887	-3.814	58.324	-0.160	-1.160
150.405	731.800	294.988	37.199	57.138	230.270	-3.221	63.486	-0.312	-1.854
151.194	735.300	301.749	43.268	58.976	234.408	-3.009	58.719	-0.003	-1.346
151.976	738.300	293.051	36.656	58.324	239.584	-3.963	59.174	-0.603	-1.758
152.761	741.400	299.088	35.906	56.387	238.435	-2.719	56.931	0.047	-1.451
153.545	744.500	302.615	39.910	63.668	240.257	-3.554	58.818	0.055	-1.763
154.337	747.500	290.358	41.728	62.047	229.951	-3.354	58.934	0.085	-1.640
155.128	750.600	304.761	38.255	59.297	236.714	-3.093	57.318	0.019	-0.735
155.917	754.200	290.737	40.224	60.055	236.563	-3.083	57.341	-0.677	-1.069
156.708	757.300	304.343	35.730	60.521	249.867	-4.139	60.219	-0.674	-0.959
157.493	760.400	294.913	34.612	56.046	245.681	-2.774	60.475	-0.125	-1.620
158.281	763.400	297.428	35.833	61.172	244.275	-3.894	62.569	-0.839	-0.933
159.071	766.400	298.588	38.414	65.368	241.165	-3.108	61.131	0.439	-1.371
159.854	769.500	291.887	39.037	61.368	238.281	-2.958	58.450	-0.194	-2.143
160.645	773.100	293.489	36.753	58.242	242.639	-3.916	58.062	0.304	-1.389
161.432	776.200	296.198	37.536	60.002	236.890	-3.388	62.362	0.399	-1.548
162.220	779.300	302.702	36.343	59.128	243.059	-4.090	59.321	-0.916	-1.828
163.007	782.300	298.979	36.157	56.586	242.296	-3.060	59.886	-0.301	-1.419
163.795	785.400	296.765	39.761	65.380	241.079	-4.238	59.036	-0.375	-1.969
164.583	788.400	300.651	39.093	63.542	246.177	-3.084	57.863	0.066	-1.487
165.392	792.000	298.512	38.810	65.679	239.396	-3.307	61.749	-0.644	-1.171
166.177	795.100	294.967	37.997	61.160	241.703	-3.031	57.833	0.247	-1.259
166.964	798.200	294.969	36.441	65.758	245.471	-2.604	58.603	0.316	-1.085
167.752	801.300	296.881	35.917	63.277	238.823	-2.841	61.670	-0.625	-0.593
168.540	804.400	297.918	35.364	63.395	240.628	-3.357	60.471	-0.350	-1.715
169.325	807.500	290.714	39.213	60.951	242.713	-2.690	61.650	-0.915	-1.049
170.107	811.000	295.211	41.220	63.973	243.759	-2.903	57.160	0.128	-0.997
170.897	814.000	294.488	40.060	70.333	244.666	-3.303	57.620	0.396	-1.550
171.685	817.000	308.852	41.555	62.051	245.964	-3.337	61.331	-0.672	-1.274
172.473	820.000	297.869	35.504	66.923	240.202	-2.873	61.408	-0.355	-1.060
173.262	823.100	296.043	40.415	65.973	237.353	-3.191	62.551	0.930	-1.211
174.054	826.200	297.202	40.124	62.500	241.660	-3.648	60.754	-0.166	-1.715
174.843	829.800	290.111	37.697	63.787	239.307	-3.279	60.324	-0.853	-0.933
175.632	832.800	297.165	39.380	63.744	238.042	-3.661	58.296	-0.778	-1.348
176.419	835.900	290.158	38.296	70.047	241.262	-2.867	55.256	-0.718	-1.696
177.206	838.900	287.408	40.747	63.769	241.376	-2.064	62.487	-0.138	-0.601
177.995	842.000	297.811	35.337	67.357	250.868	-3.089	62.826	-0.887	-1.373
178.780	845.100	292.134	38.676	66.035	237.977	-2.850	58.190	-0.352	-1.548
179.568	848.700	290.198	41.214	67.407	242.166	-3.787	60.235	-0.517	-0.486
180.352	851.700	298.968	36.299	67.826	245.559	-2.825	60.971	0.370	-1.517
181.139	854.700	298.331	41.556	67.584	242.118	-3.169	60.925	-0.271	-1.636
181.929	857.700	291.708	37.416	72.105	239.580	-2.631	58.820	0.170	-1.250
182.713	860.800	286.386	38.675	64.502	237.299	-4.045	58.484	0.080	-1.402
183.498	863.900	307.193	41.642	68.405	246.062	-3.579	60.178	-0.598	-1.150
184.284	867.000	301.235	36.916	71.964	239.237	-3.290	59.933	-0.893	-1.449
185.069	870.400	303.108	39.976	70.608	245.303	-3.449	59.344	-0.211	-1.464
185.852	873.400	294.244	42.628	76.537	241.866	-4.432	60.066	-0.164	-1.456
186.637	876.500	291.336	39.958	69.895	245.069	-2.375	62.364	-0.033	-1.615
187.426	879.700	293.291	40.682	68.617	242.646	-3.227	57.339	-0.310	-0.660
188.213	882.700	280.598	40.587	73.802	244.036	-3.173	60.438	0.570	-1.788
188.998	885.700	302.917	38.423	66.520	259.489	-3.519	62.536	0.402	-1.934
189.784	888.700	293.150	38.186	71.494	244.519	-4.028	60.823	-0.681	-1.899
190.571	892.300	290.834	42.448	74.008	239.777	-3.578	55.683	-0.759	-1.837
191.358	895.400	301.640	41.149	71.501	246.388	-2.961	59.074	-0.299	-1.952
192.148	898.500	291.022	39.030	69.937	240.566	-3.023	58.339	0.793	-0.627
192.938	901.600	294.954	43.807	73.740	245.419	-2.500	60.400	-0.161	-1.328
