Wed, Jul 19, 2017	3:23 PM
 Notes: HOAc_5E-09_75 s_anneal to 500 K_719
 waiting time: 50.000
 time(ms)	 temp (K)	 MS1=1.538	 MS2=17.903	 MS3=28.250	 MS4=44.784	 MS5=61.297	 MS6=31.397	 MS7=68.640	 MS8=90.000
0.000	112.700	777160.000	399070.000	221900.000	174680.000	9330.000	1743.400
0.946	112.400	748150.000	402030.000	221050.000	175920.000	9310.000	1839.300
1.894	112.200	747010.000	400550.000	222820.000	177370.000	9480.000	2075.700
2.864	112.100	736930.000	402580.000	224760.000	175540.000	9480.000	1714.600
3.841	111.900	739810.000	401930.000	223130.000	176540.000	9570.000	1861.800
4.820	111.700	732580.000	401960.000	221230.000	177090.000	9090.000	2106.300
5.771	111.500	733620.000	405140.000	222990.000	175970.000	9460.000	2075.100
6.726	111.300	733370.000	402390.000	222530.000	176300.000	9560.000	2158.000
7.678	111.100	743950.000	400240.000	223480.000	175980.000	9410.000	1917.800
8.629	111.000	743910.000	399570.000	227880.000	176790.000	9270.000	1858.400
9.603	111.100	747220.000	400500.000	257130.000	181740.000	9300.000	1700.600
10.582	111.600	764150.000	401610.000	284550.000	187030.000	9170.000	1846.300
11.533	112.600	762050.000	401160.000	270180.000	190650.000	9390.000	2004.700
12.484	114.600	761900.000	402180.000	253660.000	197480.000	9080.000	1914.200
13.438	117.400	765710.000	407030.000	244960.000	196240.000	9710.000	1961.000
14.392	120.500	757990.000	405600.000	241720.000	196480.000	9040.000	2026.100
15.372	124.400	750960.000	400700.000	238360.000	194390.000	9230.000	2001.900
16.352	128.300	738800.000	400700.000	235800.000	190520.000	9020.000	2029.800
17.305	131.900	734490.000	402080.000	237010.000	188650.000	9260.000	1975.500
18.283	134.900	730820.000	400520.000	232320.000	186990.000	9010.000	1980.300
19.236	137.900	732380.000	399280.000	233540.000	186270.000	9370.000	1824.400
20.190	140.300	728520.000	398790.000	229670.000	184180.000	9320.000	2074.400
21.177	143.200	724280.000	400190.000	229540.000	182330.000	9050.000	2205.600
22.144	145.800	720680.000	400250.000	229790.000	184610.000	9150.000	2026.200
23.098	148.200	725820.000	397210.000	229870.000	184680.000	9170.000	2062.700
24.053	150.900	735650.000	401530.000	230570.000	182200.000	8990.000	1818.000
25.022	153.800	731010.000	400330.000	229140.000	183200.000	8960.000	2022.300
25.975	156.300	729140.000	400940.000	231760.000	182660.000	8820.000	2039.600
26.929	159.300	728870.000	403930.000	231770.000	182790.000	9110.000	2112.400
27.882	162.300	731170.000	403720.000	229590.000	183230.000	8970.000	2227.400
28.838	165.000	738880.000	404090.000	231120.000	182540.000	8730.000	2105.400
29.814	168.000	716650.000	404680.000	230410.000	181470.000	9260.000	2113.500
30.768	171.000	733120.000	406710.000	228080.000	183220.000	9020.000	1973.300
31.723	173.900	722330.000	407770.000	229730.000	181940.000	8980.000	2014.500
32.694	176.800	725590.000	409330.000	228680.000	182580.000	8920.000	2180.700
33.664	179.400	722770.000	413480.000	227820.000	182960.000	8970.000	2031.000
34.651	182.300	725240.000	417290.000	229240.000	180290.000	9330.000	1937.900
35.629	185.200	711500.000	418200.000	230220.000	181260.000	9110.000	2155.600
36.581	188.100	717380.000	418490.000	229490.000	181140.000	9290.000	2165.900
37.531	190.700	724130.000	419540.000	229420.000	181250.000	9460.000	2276.200
38.485	193.600	722090.000	420060.000	231500.000	181570.000	8920.000	2096.500
39.454	196.500	719150.000	422980.000	228990.000	181310.000	9200.000	2019.800
40.424	199.500	723550.000	424020.000	229570.000	182190.000	9270.000	2106.600
41.387	202.100	716690.000	426200.000	229950.000	182570.000	8980.000	2099.800
42.338	205.000	728860.000	429430.000	231570.000	182950.000	9020.000	2119.100
43.288	208.000	725490.000	427390.000	230480.000	181210.000	9000.000	2199.900
44.241	210.900	726190.000	429490.000	232120.000	182530.000	9290.000	2114.400
45.214	213.500	723370.000	424990.000	231840.000	183520.000	8950.000	2144.600
46.169	216.500	726670.000	426970.000	231610.000	183770.000	9090.000	2230.900
47.121	219.400	720710.000	431030.000	231230.000	182540.000	9050.000	2206.800
48.072	222.000	707540.000	426400.000	228640.000	181190.000	8940.000	2112.800
49.024	224.900	729580.000	429020.000	230920.000	182560.000	8890.000	2094.700
49.996	227.900	728130.000	429790.000	230420.000	181440.000	9010.000	2208.200
50.947	230.500	722850.000	432870.000	231900.000	182660.000	9010.000	2335.600
51.900	233.400	717200.000	428290.000	229830.000	180710.000	8750.000	2253.000
52.854	236.000	725600.000	427740.000	231980.000	181800.000	8940.000	2217.300
53.805	238.900	722770.000	429010.000	232150.000	182980.000	9130.000	2260.500
54.756	241.800	719730.000	428540.000	233190.000	183610.000	9100.000	2480.800
55.728	244.800	721880.000	428350.000	231860.000	182150.000	8910.000	2297.800
56.682	247.400	721850.000	427490.000	232020.000	182530.000	9270.000	2328.100
57.634	250.300	719760.000	425140.000	233240.000	182140.000	9320.000	2229.100
58.587	253.200	719260.000	426150.000	233320.000	183690.000	9040.000	2400.900
59.561	255.900	717460.000	420660.000	233410.000	184100.000	9150.000	2419.700
60.533	259.200	712210.000	420450.000	232440.000	179940.000	9050.000	2476.200
61.487	261.800	716100.000	420800.000	232880.000	181340.000	9310.000	2590.500
62.441	264.700	712600.000	420820.000	236280.000	184060.000	9300.000	2462.300
63.395	267.700	708290.000	416860.000	236430.000	184570.000	9560.000	2339.200
64.351	270.300	710520.000	419600.000	237390.000	182520.000	9110.000	2507.800
65.334	273.200	706110.000	420650.000	238690.000	182240.000	9320.000	2668.700
66.288	276.100	705950.000	421250.000	239980.000	182490.000	9120.000	2359.400
67.269	279.000	717300.000	419890.000	238900.000	184050.000	9150.000	2426.800
68.243	282.000	717580.000	422450.000	242670.000	181110.000	9300.000	2531.700
69.215	284.700	713820.000	428160.000	245690.000	184060.000	9050.000	2392.400
70.170	287.800	727040.000	430520.000	246780.000	185190.000	9270.000	2361.400
71.128	290.800	727350.000	431350.000	246650.000	182370.000	9120.000	2380.400
72.078	293.500	744230.000	435050.000	245100.000	183230.000	9430.000	2477.700
73.047	296.500	736680.000	435330.000	245850.000	182880.000	9470.000	2397.600
74.000	299.400	744220.000	447470.000	247790.000	184910.000	9500.000	2351.900
74.972	302.400	760370.000	449210.000	249030.000	185140.000	9540.000	2475.000
75.939	305.200	758500.000	449770.000	245660.000	184420.000	9660.000	2420.300
76.905	307.800	776510.000	449730.000	244880.000	184090.000	9550.000	2501.300
77.858	310.700	786030.000	442670.000	248290.000	186190.000	9540.000	2530.500
78.813	313.700	798850.000	438780.000	251320.000	186080.000	10030.000	2507.100
79.768	316.300	825310.000	429810.000	249560.000	185990.000	10030.000	2702.500
80.717	319.100	848660.000	425080.000	254380.000	184680.000	10300.000	2748.100
81.693	322.100	849690.000	424600.000	255900.000	185990.000	10110.000	2752.300
82.645	325.100	857180.000	419220.000	260200.000	183690.000	10490.000	2569.800
83.597	327.700	860540.000	421130.000	259470.000	186500.000	10420.000	2614.600
84.548	330.700	878210.000	422680.000	262840.000	184480.000	10440.000	2430.600
85.500	333.600	885320.000	421220.000	264240.000	185270.000	10430.000	2645.900
86.449	336.200	902410.000	423510.000	268200.000	184690.000	10740.000	2390.000
87.398	339.100	906700.000	421420.000	269590.000	184750.000	10590.000	2789.000
88.350	342.100	905250.000	424270.000	276330.000	185180.000	11090.000	2686.100
89.298	344.700	906470.000	430430.000	278880.000	185100.000	11270.000	2599.200
90.259	347.300	902520.000	427160.000	284700.000	187240.000	11860.000	2668.900
91.228	350.600	908890.000	428740.000	289520.000	188200.000	11540.000	2649.400
92.187	353.200	898920.000	427490.000	293740.000	186980.000	11720.000	2589.600
93.136	356.100	895560.000	428210.000	300070.000	187490.000	11630.000	2756.200
94.087	358.800	892070.000	428990.000	304210.000	186130.000	12020.000	2583.000
95.050	361.700	898640.000	431640.000	317590.000	188360.000	12000.000	2715.400
96.024	364.600	907450.000	432520.000	326730.000	189400.000	11910.000	2554.200
96.974	367.600	897680.000	431090.000	335460.000	187400.000	12130.000	2665.100
97.934	370.500	887930.000	428500.000	349870.000	188020.000	11920.000	2954.200
98.889	373.100	887010.000	429910.000	357440.000	187780.000	11620.000	2790.700
99.839	376.100	899630.000	430480.000	371670.000	190030.000	12260.000	2715.400
100.791	379.000	892930.000	433090.000	386160.000	191710.000	12210.000	2587.800
101.741	381.600	904780.000	434770.000	400830.000	194870.000	11710.000	2724.700
102.695	384.500	899300.000	432900.000	416210.000	199330.000	12000.000	2576.300
103.650	387.500	907800.000	437740.000	431650.000	198660.000	12530.000	2656.800
104.606	390.100	926540.000	430900.000	442760.000	203080.000	12280.000	2612.200
105.562	393.000	932150.000	435130.000	453810.000	205530.000	12430.000	2706.600
106.517	395.900	948610.000	433500.000	463340.000	214020.000	12540.000	2704.200
107.472	398.600	951500.000	432100.000	469560.000	224160.000	12260.000	3008.100
108.427	401.500	977930.000	430500.000	479530.000	241890.000	12330.000	2703.800
109.380	404.400	1013210.000	433890.000	486090.000	264450.000	12380.000	3036.400
110.336	407.000	1065930.000	429820.000	490940.000	299210.000	12030.000	2727.100
111.292	409.900	1163010.000	432610.000	501980.000	352910.000	12610.000	2698.800
112.248	412.900	1312830.000	441120.000	518290.000	449670.000	12520.000	3008.000
113.201	415.500	1591250.000	439400.000	539830.000	689830.000	13120.000	2907.800
114.156	418.400	2046410.000	447320.000	601170.000	1733630.000	14420.000	2777.600
115.112	421.300	2047000.000	462650.000	747760.000	2046970.000	14690.000	2888.600
116.079	424.200	2047000.000	452500.000	757040.000	1211000.000	13640.000	2656.900
117.055	426.500	2047000.000	446640.000	775780.000	807880.000	13530.000	2919.600
118.009	429.800	2045110.000	443110.000	755860.000	584080.000	13290.000	2666.200
118.961	432.700	1923930.000	436130.000	727100.000	439370.000	12560.000	2979.400
119.922	435.200	1658790.000	441720.000	672060.000	370310.000	12420.000	2872.500
120.876	438.100	1500750.000	430600.000	615880.000	343940.000	12430.000	2671.600
121.851	441.100	1420380.000	439410.000	560470.000	328880.000	12850.000	2664.800
122.803	444.000	1364050.000	433340.000	506110.000	314750.000	12780.000	2867.000
123.753	446.600	1314290.000	432900.000	455330.000	303710.000	12460.000	2806.300
124.705	449.500	1270590.000	433150.000	416250.000	296200.000	12560.000	2765.900
125.658	452.500	1236590.000	430880.000	384900.000	294190.000	12410.000	2640.900
126.607	455.100	1198680.000	434830.000	364970.000	284040.000	12370.000	2589.700
127.560	458.100	1170890.000	437200.000	356860.000	282710.000	12780.000	2776.900
128.512	460.700	1144150.000	437990.000	347050.000	279500.000	12470.000	2614.900
129.463	463.300	1117340.000	434680.000	343380.000	275830.000	12820.000	2766.600
130.416	466.600	1088770.000	432590.000	335040.000	268660.000	12620.000	2487.800
131.370	469.200	1070540.000	435450.000	333280.000	267540.000	12530.000	2571.100
132.321	472.100	1073770.000	432900.000	331390.000	265100.000	11980.000	2679.000
133.277	475.000	1056830.000	435510.000	328500.000	263990.000	12210.000	2738.800
134.231	478.000	1037110.000	435140.000	330260.000	262460.000	12440.000	2491.800
135.186	480.600	1038440.000	437620.000	331590.000	259730.000	12390.000	2572.300
136.143	483.500	1026130.000	439300.000	330700.000	259170.000	12600.000	2562.300
137.096	486.400	1015830.000	439060.000	329400.000	256510.000	12610.000	2753.900
138.051	489.000	1010480.000	439900.000	325330.000	253470.000	12610.000	2844.400
139.024	491.900	988220.000	438010.000	324810.000	253670.000	12560.000	2995.500
139.977	494.900	962260.000	434610.000	315210.000	246030.000	12190.000	2647.200
140.935	495.800	906970.000	429530.000	299880.000	234140.000	12030.000	2677.500
