Tue, Jul 18, 2017	2:55 PM
 Notes: HOAc_2E-09_150 s _718_USB fix
 waiting time: 50.000
 time(ms)	 temp (K)	 MS1=1.538	 MS2=17.903	 MS3=28.178	 MS4=44.784	 MS5=61.297	 MS6=68.073	 MS7=68.640	 MS8=90.000
0.000	91.300	685700.000	196500.000	162400.000	98300.000	1820.000
0.792	91.300	666700.000	197360.000	162000.000	98500.000	1860.000
1.584	91.300	662400.000	196540.000	161800.000	98200.000	1860.000
2.399	91.300	651600.000	196490.000	163000.000	98700.000	1810.000
3.210	91.300	655500.000	196580.000	162900.000	98400.000	1650.000
4.018	91.300	672400.000	199340.000	161600.000	98100.000	1750.000
4.814	91.300	670500.000	198010.000	163200.000	98600.000	1770.000
5.607	91.300	670300.000	197870.000	163500.000	98500.000	1750.000
6.400	91.300	665000.000	198880.000	162900.000	98700.000	1890.000
7.213	91.300	670000.000	198440.000	161800.000	98600.000	1810.000
8.013	91.300	672900.000	198000.000	162100.000	98800.000	1740.000
8.806	91.300	675700.000	197710.000	161500.000	97700.000	1620.000
9.610	91.300	671900.000	198860.000	162800.000	99100.000	1840.000
10.425	91.300	668900.000	198670.000	161400.000	99100.000	1780.000
11.233	91.300	669000.000	197720.000	161100.000	98300.000	1630.000
12.027	91.300	675800.000	199400.000	162900.000	98200.000	1750.000
12.820	91.300	680800.000	200850.000	165600.000	99000.000	1670.000
13.618	91.400	679800.000	199500.000	187400.000	98700.000	1710.000
14.411	91.700	693400.000	200710.000	222400.000	103700.000	5300.000
15.216	92.300	720700.000	220390.000	237500.000	104600.000	5180.000
16.049	93.300	717900.000	215990.000	242000.000	103700.000	4160.000
16.858	94.800	730500.000	215860.000	244000.000	102300.000	3620.000
17.672	96.700	733100.000	217710.000	244100.000	102800.000	2850.000
18.477	99.500	738300.000	214150.000	245100.000	103500.000	2390.000
19.283	102.200	732100.000	207700.000	252800.000	104500.000	2190.000
20.088	105.100	740800.000	206670.000	262000.000	102600.000	2000.000
20.884	108.400	736600.000	204250.000	263700.000	103400.000	2010.000
21.690	111.100	737900.000	202990.000	259600.000	101900.000	1830.000
22.486	113.700	717300.000	203910.000	250600.000	102400.000	1760.000
23.280	116.000	719600.000	202620.000	248400.000	103200.000	1900.000
24.078	118.500	711100.000	202180.000	241000.000	101200.000	1880.000
24.893	120.600	694900.000	202360.000	235500.000	102000.000	1800.000
25.690	122.600	693300.000	201850.000	233900.000	102200.000	1790.000
26.483	124.600	698200.000	203200.000	238200.000	104300.000	1810.000
27.306	126.900	686700.000	214990.000	232000.000	103400.000	1870.000
28.132	129.100	692300.000	204830.000	232600.000	103600.000	1720.000
28.958	131.500	702900.000	205930.000	232600.000	104300.000	2120.000
29.774	133.800	699200.000	210610.000	231400.000	103600.000	2040.000
30.597	136.400	704100.000	212100.000	227100.000	105300.000	2090.000
31.433	138.800	697900.000	219160.000	224600.000	105000.000	2060.000
32.253	141.400	695600.000	222070.000	229300.000	104900.000	2610.000
33.051	143.800	690700.000	239270.000	218100.000	105300.000	3780.000
33.874	146.400	680500.000	256140.000	213900.000	105600.000	6040.000
34.678	148.700	672300.000	284120.000	212200.000	107200.000	10590.000
35.476	151.000	683800.000	310510.000	211200.000	108100.000	17930.000
36.286	153.600	681700.000	348890.000	216000.000	113800.000	30190.000
37.084	155.800	694600.000	383590.000	218200.000	117800.000	47580.000
37.894	158.100	702900.000	437500.000	226800.000	125500.000	72290.000
38.691	160.300	704700.000	493420.000	233500.000	133600.000	104050.000
39.489	162.900	701600.000	560140.000	249800.000	141400.000	140450.000
40.284	165.100	720800.000	603440.000	257400.000	147900.000	150780.000
41.081	167.400	715900.000	592740.000	252900.000	139200.000	100570.000
41.878	169.600	707500.000	515450.000	230400.000	129300.000	58620.000
42.673	172.200	710100.000	478170.000	221400.000	126200.000	49380.000
43.468	174.500	713000.000	456040.000	216200.000	122700.000	48350.000
44.291	176.800	713100.000	446680.000	216200.000	123300.000	42050.000
45.087	179.000	712700.000	436190.000	213000.000	121400.000	35040.000
45.881	181.700	698200.000	420390.000	209700.000	121700.000	31020.000
46.675	184.000	705600.000	405860.000	206300.000	118100.000	27660.000
47.491	186.300	700300.000	394230.000	203000.000	116900.000	25140.000
48.285	188.600	695000.000	383580.000	202700.000	117100.000	24670.000
49.079	191.200	704800.000	374240.000	200700.000	114500.000	25350.000
49.876	193.500	701200.000	358260.000	201300.000	115800.000	24870.000
50.669	195.700	715000.000	350280.000	200300.000	118000.000	24530.000
51.487	198.300	708100.000	343120.000	199200.000	115700.000	23930.000
52.281	200.600	728100.000	332570.000	197900.000	116500.000	22110.000
53.073	202.900	734800.000	323350.000	198500.000	114900.000	20740.000
53.898	205.400	769400.000	316670.000	197800.000	116800.000	19490.000
54.710	207.700	814900.000	310150.000	195300.000	114900.000	19100.000
55.519	210.000	842200.000	300580.000	196500.000	115900.000	17380.000
56.322	212.300	902900.000	299540.000	195600.000	115400.000	16830.000
57.129	214.900	963000.000	293560.000	195500.000	113800.000	16310.000
57.937	217.200	1024000.000	290020.000	193500.000	114900.000	15550.000
58.763	219.800	1096400.000	292370.000	195300.000	116700.000	14880.000
59.560	222.100	1168600.000	287670.000	194000.000	116300.000	14460.000
60.371	224.700	1260300.000	285940.000	192900.000	114600.000	14220.000
61.175	227.000	1345600.000	285480.000	193100.000	116200.000	13800.000
61.986	229.300	1418800.000	284560.000	192700.000	115100.000	13020.000
62.785	231.500	1491000.000	281620.000	192300.000	116600.000	13140.000
63.595	234.100	1558600.000	280670.000	191300.000	115100.000	11980.000
64.409	236.400	1632100.000	279590.000	190800.000	114200.000	11480.000
65.222	239.000	1621000.000	277190.000	189600.000	114800.000	11140.000
66.017	241.300	1634800.000	280920.000	190700.000	115900.000	10240.000
66.814	243.600	1635400.000	279630.000	191900.000	115700.000	9820.000
67.615	245.900	1647500.000	279540.000	188400.000	114700.000	9160.000
68.424	248.500	1645000.000	272440.000	188800.000	114800.000	8230.000
69.270	250.800	1623300.000	276470.000	188900.000	115700.000	8120.000
70.065	253.400	1612700.000	268520.000	185500.000	113700.000	7950.000
70.876	255.700	1602000.000	269680.000	187900.000	113900.000	7040.000
71.673	258.000	1572300.000	267440.000	184800.000	115400.000	7400.000
72.472	260.600	1523000.000	262320.000	187100.000	114200.000	7040.000
73.274	262.900	1508100.000	262630.000	186300.000	113000.000	6330.000
74.074	265.100	1499400.000	261950.000	184600.000	113400.000	6020.000
74.872	267.500	1441600.000	261510.000	184300.000	114200.000	5530.000
75.670	269.700	1417400.000	260690.000	186100.000	114300.000	5720.000
76.469	272.300	1376400.000	263070.000	186000.000	114600.000	5090.000
77.281	274.600	1329600.000	260770.000	184600.000	113700.000	5270.000
78.076	277.200	1326700.000	258130.000	183800.000	114300.000	5030.000
78.890	279.500	1297000.000	258340.000	187100.000	114600.000	4820.000
79.688	281.800	1281100.000	260390.000	186000.000	113800.000	4850.000
80.483	284.000	1275900.000	259710.000	186000.000	112500.000	4540.000
81.281	286.700	1236000.000	260670.000	185100.000	112400.000	4490.000
82.076	289.000	1233700.000	262610.000	186400.000	112200.000	4320.000
82.874	291.300	1205900.000	262180.000	184900.000	111600.000	4340.000
83.681	293.600	1165800.000	266460.000	187400.000	113400.000	3980.000
84.475	296.200	1172000.000	267760.000	188100.000	112900.000	4100.000
85.272	298.500	1140000.000	270080.000	186500.000	112100.000	3770.000
86.067	300.800	1120400.000	266590.000	184400.000	110800.000	3780.000
86.861	303.100	1113400.000	267280.000	185300.000	112900.000	3820.000
87.655	305.300	1069600.000	266380.000	184100.000	112700.000	3790.000
88.478	307.900	1066500.000	266240.000	183400.000	113400.000	3570.000
89.272	310.200	1023200.000	262740.000	182600.000	112800.000	3330.000
90.064	312.200	992300.000	253170.000	181500.000	110900.000	3660.000
90.857	315.100	984000.000	251410.000	185100.000	112300.000	3720.000
91.651	317.400	963400.000	249040.000	183000.000	111300.000	3740.000
92.444	319.700	933800.000	245960.000	183100.000	112000.000	3340.000
93.237	321.900	931200.000	245040.000	181100.000	113600.000	3620.000
94.030	324.500	894500.000	239500.000	182200.000	112200.000	3490.000
94.822	326.500	903600.000	241140.000	180800.000	111900.000	3290.000
95.617	329.100	981300.000	239240.000	182000.000	112300.000	3480.000
96.490	331.800	876200.000	241960.000	188200.000	112200.000	3340.000
97.324	334.100	866100.000	242160.000	183900.000	123400.000	3320.000
98.217	336.600	874200.000	241800.000	184200.000	121300.000	3150.000
99.119	339.600	882200.000	262220.000	184200.000	113600.000	3390.000
100.098	342.500	859600.000	244300.000	185800.000	114400.000	3120.000
100.908	344.800	856800.000	244290.000	187100.000	112600.000	3100.000
101.703	347.100	855500.000	244060.000	186000.000	114100.000	3230.000
102.499	349.300	835700.000	243050.000	187100.000	112900.000	3200.000
103.309	351.600	849300.000	244040.000	191000.000	115300.000	2960.000
104.106	354.200	854400.000	243800.000	189500.000	116900.000	2950.000
104.911	356.500	849000.000	243160.000	189000.000	115700.000	3250.000
105.709	358.800	845000.000	244070.000	188800.000	115200.000	3390.000
106.504	361.100	835400.000	244340.000	190500.000	115800.000	2960.000
107.302	363.700	846700.000	244980.000	191400.000	118300.000	2810.000
108.189	366.300	845400.000	244610.000	194600.000	117600.000	2940.000
108.983	368.600	849400.000	244880.000	197400.000	120100.000	3160.000
109.781	370.900	849200.000	243930.000	201300.000	119200.000	2970.000
110.576	373.500	842900.000	244370.000	204400.000	121600.000	2980.000
111.382	375.800	846900.000	244560.000	208000.000	123100.000	2950.000
112.182	378.400	847900.000	243050.000	211300.000	123900.000	2900.000
112.978	380.700	850700.000	243910.000	217000.000	125400.000	2850.000
113.775	383.000	865100.000	243270.000	218900.000	129300.000	2930.000
114.572	385.300	875900.000	247260.000	225900.000	132400.000	3200.000
115.373	387.600	879600.000	243640.000	233400.000	135500.000	3080.000
116.184	390.200	892100.000	240540.000	239300.000	139200.000	2910.000
117.008	392.500	923700.000	244000.000	249900.000	147400.000	2640.000
117.804	395.000	936300.000	245230.000	257400.000	150900.000	2940.000
118.603	397.000	962500.000	246030.000	261000.000	160400.000	3040.000
119.399	399.600	976100.000	240770.000	272900.000	173300.000	2760.000
120.196	401.900	1011700.000	248570.000	279800.000	188700.000	2690.000
120.991	403.800	1065600.000	246980.000	292200.000	209100.000	2830.000
121.789	406.800	1129500.000	245220.000	303600.000	236700.000	2680.000
122.604	409.000	1243800.000	245060.000	316300.000	274900.000	2660.000
123.399	411.400	1386800.000	245710.000	335400.000	338900.000	2870.000
124.195	413.900	1601400.000	248840.000	365100.000	460000.000	2770.000
124.995	416.200	1991500.000	249470.000	407200.000	730500.000	2990.000
125.789	418.500	2796900.000	255210.000	473600.000	1433300.000	3140.000
126.583	420.700	4427500.000	254870.000	562800.000	2045200.000	3370.000
127.376	423.400	5223900.000	257590.000	634900.000	1973000.000	3230.000
128.168	425.600	4568500.000	256230.000	631200.000	919700.000	2880.000
128.962	427.900	2737000.000	256430.000	619500.000	551500.000	2570.000
129.760	430.200	2010000.000	253010.000	601300.000	433700.000	2790.000
130.555	432.500	1740100.000	254670.000	578700.000	356200.000	2980.000
131.350	434.800	1562600.000	253300.000	535700.000	298300.000	2660.000
132.146	437.400	1403600.000	252020.000	485800.000	261300.000	2740.000
132.938	439.600	1293900.000	253440.000	444200.000	241000.000	2720.000
133.734	441.900	1213100.000	250470.000	397500.000	227300.000	2470.000
134.529	444.200	1156800.000	250020.000	355100.000	211800.000	2520.000
135.321	446.400	1112200.000	252650.000	324200.000	204100.000	2650.000
136.115	449.000	1079100.000	250340.000	299700.000	197900.000	2480.000
136.909	451.300	1040800.000	248170.000	281800.000	191000.000	2790.000
137.717	453.900	1022100.000	250400.000	269700.000	188100.000	2690.000
138.513	456.200	1008100.000	250480.000	261100.000	181500.000	2710.000
139.308	458.500	972000.000	250510.000	253200.000	177100.000	2660.000
140.106	460.800	968800.000	248440.000	249100.000	173100.000	2640.000
140.902	463.400	970700.000	248770.000	246100.000	169800.000	2390.000
141.697	465.700	933700.000	247920.000	242200.000	165700.000	2390.000
142.495	468.000	922200.000	250400.000	245800.000	161600.000	2420.000
143.295	470.200	893400.000	248950.000	238200.000	160400.000	2540.000
144.091	472.900	875100.000	248090.000	234800.000	154000.000	2420.000
144.886	475.100	855800.000	251280.000	231100.000	150700.000	2580.000
145.686	477.400	847100.000	250530.000	228000.000	149000.000	2300.000
146.486	479.700	850800.000	248570.000	228600.000	147300.000	2680.000
147.281	482.300	822000.000	246150.000	223500.000	144400.000	2440.000
148.077	484.500	834300.000	250700.000	226400.000	145100.000	2530.000
148.878	486.800	818100.000	251400.000	224300.000	141700.000	2420.000
149.675	489.100	818300.000	250740.000	223200.000	140400.000	2350.000
150.490	491.400	800600.000	252340.000	223100.000	139100.000	2520.000
151.287	494.000	803700.000	251220.000	223000.000	136800.000	2330.000
152.085	496.300	795200.000	251150.000	220400.000	136000.000	2390.000
152.882	498.900	768400.000	249340.000	215500.000	132400.000	2400.000
153.679	501.200	761300.000	245870.000	212900.000	130700.000	2390.000
154.476	503.400	763500.000	245860.000	214100.000	132600.000	2320.000
155.274	505.700	739400.000	247010.000	210400.000	128900.000	2110.000
156.072	508.400	732300.000	253090.000	216000.000	132400.000	2190.000
156.869	510.300	756300.000	252560.000	213800.000	130800.000	2320.000
157.669	512.900	753000.000	255880.000	214000.000	130700.000	2260.000
158.465	515.100	746900.000	255290.000	214700.000	130000.000	2230.000
159.262	517.400	745200.000	256790.000	213300.000	128100.000	2550.000
160.059	520.000	745200.000	253320.000	213400.000	126900.000	2260.000
160.855	522.300	736900.000	255160.000	212200.000	126600.000	2100.000
161.652	524.600	729100.000	251600.000	209100.000	125700.000	2270.000
162.448	527.200	728200.000	256880.000	209600.000	125800.000	2010.000
163.250	529.500	723000.000	255670.000	210300.000	125800.000	2130.000
164.044	531.800	719400.000	255580.000	209700.000	126400.000	2160.000
164.840	534.100	710500.000	255860.000	207100.000	124900.000	2110.000
165.638	536.300	708200.000	255500.000	207900.000	124600.000	2150.000
166.434	538.900	701600.000	253440.000	206000.000	123000.000	2280.000
167.230	541.100	700500.000	256670.000	206300.000	125100.000	2480.000
168.025	543.400	695300.000	254860.000	206300.000	123300.000	2360.000
168.820	545.700	688700.000	252280.000	204700.000	124700.000	2300.000
169.614	548.300	697300.000	255150.000	207500.000	123000.000	2220.000
170.429	550.500	686200.000	253970.000	204600.000	122400.000	2130.000
171.222	552.800	683300.000	252190.000	203900.000	123200.000	2290.000
172.015	555.100	676600.000	252930.000	204200.000	123200.000	2260.000
172.808	557.700	678700.000	254850.000	202600.000	121500.000	2260.000
173.601	559.900	676300.000	252860.000	203500.000	124400.000	2100.000
174.393	562.200	678100.000	254630.000	201700.000	122300.000	2180.000
175.190	564.500	690300.000	253400.000	203000.000	122700.000	2130.000
175.988	567.100	693500.000	254340.000	205400.000	120900.000	2070.000
176.783	569.400	688600.000	250710.000	201200.000	121100.000	2310.000
177.581	571.600	687000.000	254220.000	205200.000	123900.000	2260.000
178.378	573.900	698400.000	256890.000	205600.000	122800.000	2230.000
179.185	576.500	694200.000	249550.000	205200.000	123000.000	2160.000
179.979	578.700	678000.000	250350.000	206800.000	121600.000	2480.000
180.773	581.000	685500.000	245750.000	202000.000	124400.000	2320.000
181.568	583.300	701100.000	250540.000	205800.000	122100.000	1980.000
182.363	585.600	691700.000	249540.000	204700.000	121800.000	2360.000
183.160	588.200	703500.000	254800.000	210500.000	122900.000	2220.000
183.967	590.400	686900.000	251250.000	208500.000	119100.000	2410.000
184.763	592.700	670700.000	252350.000	210500.000	123600.000	2190.000
185.564	595.300	692100.000	254660.000	212700.000	123800.000	2230.000
186.361	597.500	692400.000	253220.000	214800.000	124900.000	2300.000
187.156	599.800	689300.000	255170.000	217600.000	122300.000	2320.000
187.953	602.100	690400.000	252560.000	217300.000	122300.000	2020.000
188.752	604.300	675500.000	252920.000	220300.000	124700.000	2240.000
189.550	606.900	686300.000	256170.000	221100.000	123000.000	2230.000
190.350	609.100	644900.000	251310.000	233300.000	125400.000	2250.000
191.147	611.400	696200.000	259360.000	233900.000	125000.000	2180.000
191.944	613.600	707400.000	259660.000	235500.000	125200.000	2180.000
192.742	616.300	706500.000	260130.000	240100.000	124900.000	2030.000
