Wed, Jul 19, 2017	3:30 PM
 Notes: HOAc_5E-09_75 s_anneal to 800 K_719
 waiting time: 50.000
 time(ms)	 temp (K)	 MS1=1.538	 MS2=17.903	 MS3=28.250	 MS4=44.784	 MS5=61.297	 MS6=31.397	 MS7=68.640	 MS8=90.000
0.000	151.300	733860.000	407650.000	224380.000	193720.000	7980.000	1945.100
0.946	150.800	698560.000	413820.000	224300.000	193390.000	7620.000	2106.300
1.890	150.300	693550.000	411100.000	222570.000	192930.000	8020.000	2141.200
2.858	149.800	694030.000	409150.000	222760.000	192140.000	7720.000	2128.600
3.822	149.400	695850.000	408940.000	223910.000	192800.000	7810.000	2301.700
4.774	148.900	696340.000	410000.000	222200.000	192200.000	7620.000	2116.200
5.730	148.400	688700.000	409960.000	222500.000	192840.000	7880.000	1955.100
6.679	147.900	696640.000	409230.000	224380.000	194400.000	8060.000	2351.000
7.642	147.500	698890.000	411990.000	226140.000	195410.000	7490.000	2106.800
8.620	147.200	697810.000	412880.000	245370.000	200190.000	8120.000	2283.900
9.596	147.300	718130.000	412240.000	265460.000	203080.000	7540.000	2087.100
10.550	148.000	727140.000	416000.000	262390.000	205730.000	8000.000	2230.200
11.517	149.300	711990.000	417780.000	249240.000	210730.000	7850.000	2170.300
12.469	151.700	711990.000	419840.000	244380.000	216790.000	7990.000	2252.300
13.423	155.100	704890.000	420360.000	242090.000	218840.000	7970.000	2322.500
14.377	158.700	711240.000	417240.000	241970.000	218130.000	7870.000	2357.000
15.346	162.800	709530.000	415920.000	238710.000	218640.000	7870.000	2241.600
16.323	166.600	702840.000	411310.000	239410.000	216100.000	7480.000	2265.700
17.277	170.100	707610.000	414030.000	235690.000	213470.000	7890.000	2287.100
18.256	173.200	699790.000	412650.000	234700.000	213170.000	7780.000	2372.400
19.224	175.700	707260.000	411730.000	236440.000	208890.000	8080.000	2225.400
20.195	178.300	696400.000	412430.000	233970.000	205610.000	7640.000	2228.500
21.150	180.900	686240.000	412280.000	233330.000	207290.000	8130.000	2248.300
22.117	183.500	678400.000	412570.000	235940.000	204160.000	7470.000	2370.900
23.071	185.900	683210.000	413000.000	231340.000	205410.000	7860.000	2310.600
24.024	188.700	677440.000	414210.000	234150.000	206020.000	7830.000	2190.500
24.979	191.600	690570.000	412160.000	234740.000	204600.000	7390.000	2365.800
25.935	194.300	695530.000	414400.000	232630.000	204880.000	7800.000	2510.700
26.888	197.400	701460.000	413180.000	234060.000	203310.000	7550.000	2258.600
27.840	200.500	700350.000	416700.000	232200.000	201820.000	7600.000	2297.400
28.794	203.100	689780.000	413380.000	233490.000	206240.000	7360.000	2505.900
29.764	206.100	687270.000	416000.000	232990.000	204260.000	7680.000	2243.900
30.717	208.700	695780.000	416850.000	232670.000	203040.000	7890.000	2410.400
31.669	211.600	695820.000	415290.000	232360.000	202700.000	7810.000	2314.300
32.645	214.500	693170.000	414070.000	231730.000	202910.000	7600.000	2475.100
33.599	217.400	694430.000	415310.000	230800.000	202550.000	7820.000	2352.300
34.573	220.300	697750.000	418600.000	230540.000	202880.000	7570.000	2380.600
35.526	223.000	696130.000	420480.000	233230.000	201920.000	7600.000	2224.700
36.478	225.800	702970.000	423530.000	233820.000	202320.000	7570.000	2450.100
37.441	228.800	713370.000	427450.000	232450.000	203660.000	7840.000	2313.000
38.389	231.400	708720.000	431920.000	232410.000	200490.000	7890.000	2284.900
39.341	234.400	708270.000	438690.000	231490.000	200420.000	7530.000	2269.200
40.305	237.300	705050.000	438480.000	232830.000	203790.000	7470.000	2435.300
41.270	240.200	707770.000	446270.000	232850.000	202920.000	7360.000	2237.900
42.220	242.800	700230.000	450800.000	232950.000	204710.000	7970.000	2456.200
43.171	245.800	709410.000	447940.000	232630.000	202140.000	7780.000	2380.000
44.133	248.700	706050.000	452170.000	232260.000	202070.000	7860.000	2556.900
45.103	251.600	712530.000	455210.000	233980.000	202770.000	7640.000	2105.900
46.055	254.300	709600.000	451560.000	233680.000	203180.000	7900.000	2347.100
47.007	257.200	713330.000	455160.000	233790.000	205090.000	7430.000	2342.500
47.960	260.100	712530.000	450930.000	234190.000	204680.000	7730.000	2328.900
48.913	262.800	699590.000	449620.000	234440.000	203600.000	7460.000	2172.100
49.866	265.700	714310.000	451000.000	233820.000	202220.000	7620.000	2636.500
50.821	268.600	714980.000	442280.000	232720.000	203990.000	7480.000	2299.100
51.775	271.200	719470.000	443400.000	235220.000	203650.000	7460.000	2418.200
52.729	274.100	722040.000	441920.000	233630.000	203190.000	7390.000	2213.600
53.682	277.100	715900.000	435880.000	235700.000	203700.000	7470.000	2392.200
54.635	279.700	723800.000	440220.000	237760.000	204420.000	7640.000	2350.900
55.590	282.600	723780.000	432620.000	238060.000	201740.000	7730.000	2293.800
56.545	285.300	729660.000	439950.000	236640.000	203330.000	7440.000	2384.900
57.521	288.200	727080.000	432080.000	236310.000	204480.000	7430.000	2215.600
58.477	291.200	730190.000	430000.000	237840.000	203890.000	7760.000	2442.000
59.453	294.100	739310.000	424390.000	236020.000	202560.000	8050.000	2439.700
60.429	297.100	751590.000	427060.000	237240.000	202270.000	7440.000	2341.600
61.383	299.700	751610.000	427540.000	238410.000	203930.000	7460.000	2503.300
62.338	302.600	766970.000	424630.000	238570.000	204990.000	7710.000	2428.800
63.294	305.500	765970.000	425520.000	237520.000	202290.000	7450.000	2504.500
64.273	308.500	771520.000	427230.000	239480.000	203690.000	7340.000	2510.200
65.233	311.100	769290.000	425120.000	238270.000	203660.000	7460.000	2543.000
66.188	314.000	768930.000	422640.000	237080.000	202620.000	7710.000	2344.700
67.143	316.900	779000.000	426490.000	237080.000	203060.000	7380.000	2469.700
68.108	319.900	770250.000	426170.000	238520.000	204030.000	7310.000	2485.300
69.083	322.800	770840.000	424950.000	237980.000	202210.000	7410.000	2297.300
70.040	325.400	770980.000	418530.000	237160.000	200440.000	7620.000	2445.500
70.995	328.400	769740.000	426260.000	239160.000	205050.000	7510.000	2439.200
71.949	331.300	763770.000	425200.000	242620.000	204720.000	7590.000	2308.400
72.923	333.900	768560.000	424640.000	240810.000	203600.000	7720.000	2326.000
73.876	336.900	762820.000	421230.000	240340.000	203570.000	7830.000	2355.000
74.827	339.800	766050.000	423140.000	241440.000	203880.000	7720.000	2457.500
75.781	342.400	756790.000	424080.000	243910.000	201740.000	7700.000	2399.900
76.750	345.400	748600.000	426240.000	245320.000	203950.000	7640.000	2333.000
77.699	348.300	744900.000	425130.000	246050.000	204010.000	7380.000	2515.400
78.651	351.200	748610.000	423800.000	247110.000	205210.000	7850.000	2414.700
79.604	353.800	737800.000	422150.000	245740.000	204820.000	7550.000	2234.200
80.555	356.800	747430.000	427300.000	248780.000	203010.000	7580.000	2437.900
81.507	359.700	732560.000	424570.000	248830.000	204550.000	7800.000	2379.000
82.458	362.300	755530.000	426450.000	251790.000	203710.000	7500.000	2461.900
83.410	365.300	739640.000	426210.000	254270.000	204310.000	7590.000	2186.000
84.360	368.200	733170.000	424980.000	258400.000	205360.000	7310.000	2313.100
85.352	371.100	737170.000	425100.000	256790.000	205090.000	7220.000	2347.000
86.303	373.800	737580.000	423970.000	260270.000	206720.000	7540.000	2494.300
87.256	376.400	733270.000	420070.000	260830.000	206040.000	7680.000	2371.100
88.210	379.700	741450.000	423190.000	262770.000	204080.000	7260.000	2463.200
89.162	382.200	757190.000	427450.000	267670.000	206080.000	7900.000	2525.700
90.114	385.200	755680.000	425370.000	272480.000	207670.000	7500.000	2527.900
91.068	387.800	759730.000	425120.000	279010.000	209100.000	7350.000	2406.700
92.022	390.700	750900.000	424880.000	279090.000	206660.000	7370.000	2529.200
92.986	393.700	740890.000	419920.000	278940.000	208390.000	7670.000	2288.500
93.940	396.600	750540.000	426380.000	288630.000	208240.000	7470.000	2329.600
94.896	399.300	744730.000	419140.000	298550.000	210690.000	7790.000	2312.600
95.852	402.200	747730.000	426100.000	302970.000	210500.000	7330.000	2385.900
96.826	405.100	737800.000	427730.000	305550.000	212070.000	7440.000	2289.800
97.781	407.700	744350.000	425400.000	309790.000	208640.000	7270.000	2401.800
98.736	410.600	750340.000	428120.000	315220.000	212700.000	7550.000	2416.600
99.691	413.500	759850.000	423870.000	319220.000	211090.000	7510.000	2573.800
100.647	416.100	758750.000	427520.000	320020.000	212630.000	7300.000	2272.500
101.612	419.000	767250.000	428750.000	321490.000	212580.000	7600.000	2304.400
102.568	422.000	764860.000	429000.000	319080.000	213820.000	7450.000	2426.400
103.523	424.900	773750.000	427120.000	316150.000	214340.000	7580.000	2107.000
104.477	427.500	775060.000	424790.000	309100.000	211200.000	7370.000	2369.700
105.430	430.400	773950.000	426160.000	298890.000	209910.000	7590.000	2464.400
106.408	433.400	779310.000	426610.000	291380.000	211920.000	7340.000	2476.300
107.362	436.300	777970.000	426600.000	281970.000	211730.000	7520.000	2322.400
108.317	438.900	785920.000	425680.000	276470.000	213990.000	7400.000	2331.500
109.271	441.800	782840.000	423470.000	264840.000	209340.000	7530.000	2269.200
110.225	444.700	790000.000	422080.000	258130.000	209290.000	7500.000	2415.400
111.178	447.300	792490.000	427040.000	259670.000	211400.000	7640.000	2348.200
112.132	450.300	780830.000	423630.000	255370.000	212540.000	7680.000	2233.200
113.085	453.200	797150.000	425010.000	254170.000	213350.000	7960.000	2436.700
114.040	455.800	786720.000	425680.000	251460.000	211360.000	7600.000	2377.900
114.992	458.800	798960.000	423320.000	250980.000	211930.000	7620.000	2449.900
115.958	461.700	805330.000	426380.000	253960.000	210350.000	7680.000	2494.300
116.909	464.300	793960.000	418560.000	254600.000	210500.000	7870.000	2360.600
117.859	467.300	790220.000	425950.000	255220.000	213770.000	7700.000	2297.500
118.810	470.200	794570.000	425680.000	253120.000	212540.000	7610.000	2403.500
119.759	472.800	785790.000	433270.000	253960.000	213080.000	8000.000	2734.500
120.709	475.700	788590.000	422250.000	255850.000	213230.000	8100.000	2485.300
121.660	478.600	794530.000	426880.000	256740.000	214220.000	8170.000	2516.400
122.610	481.200	795950.000	421200.000	257390.000	214300.000	7830.000	2575.700
123.563	484.100	812020.000	425540.000	256590.000	209970.000	8090.000	2520.600
124.515	487.100	825410.000	431710.000	264550.000	212940.000	8220.000	2395.600
125.470	489.700	819240.000	432270.000	263670.000	215460.000	8450.000	2420.900
126.423	492.300	826100.000	425940.000	263030.000	214040.000	8210.000	2608.700
127.377	495.200	836180.000	427090.000	261760.000	211280.000	8730.000	2566.000
128.329	498.100	854630.000	433870.000	274770.000	219960.000	8670.000	2494.400
129.285	500.700	886280.000	432760.000	273320.000	218940.000	8540.000	2822.200
130.239	504.000	900740.000	432260.000	283440.000	221260.000	8540.000	2709.800
131.192	506.600	912940.000	428760.000	279620.000	218130.000	8790.000	2739.000
132.146	509.600	914280.000	416280.000	279740.000	219660.000	8960.000	2914.700
133.100	512.100	883110.000	425760.000	290110.000	223790.000	9160.000	2680.300
134.057	515.100	922030.000	440600.000	294200.000	224830.000	9060.000	2611.200
135.009	518.000	951470.000	444050.000	296070.000	224670.000	9290.000	2783.700
135.965	520.900	944080.000	442570.000	299720.000	224150.000	9320.000	2529.100
136.920	523.500	939680.000	437160.000	296230.000	220380.000	9220.000	2593.600
137.876	526.400	931500.000	436270.000	301060.000	221410.000	9290.000	2738.200
138.830	529.400	945630.000	436130.000	301420.000	220640.000	9200.000	2656.300
139.787	532.000	942350.000	439480.000	303270.000	221050.000	9240.000	2644.700
140.741	534.900	927790.000	438940.000	306650.000	222610.000	9530.000	2517.100
141.700	537.500	943330.000	436740.000	304650.000	220090.000	9560.000	2697.000
142.654	540.400	935800.000	439420.000	307200.000	220640.000	9820.000	2534.500
143.607	543.400	931930.000	437310.000	308790.000	223150.000	9750.000	2653.500
144.562	546.300	912830.000	442340.000	309550.000	220830.000	9810.000	2698.300
145.537	549.200	903970.000	439230.000	309360.000	219110.000	9940.000	2718.300
146.505	551.800	909640.000	440010.000	310420.000	217910.000	9770.000	2536.400
147.458	554.800	917450.000	439430.000	311490.000	216650.000	9440.000	2808.600
148.410	557.400	924740.000	436560.000	314330.000	218290.000	9720.000	2646.500
149.365	560.400	917210.000	439950.000	312010.000	217000.000	10010.000	2752.000
150.318	563.300	903940.000	435870.000	313940.000	219210.000	9970.000	2764.800
151.276	566.300	902900.000	435820.000	317090.000	221730.000	10270.000	2901.000
152.232	568.900	879350.000	435670.000	314940.000	214120.000	10170.000	2673.100
153.184	571.800	908270.000	439490.000	316990.000	218530.000	10170.000	2805.700
154.166	574.700	911050.000	439110.000	318500.000	215180.000	10050.000	3132.800
155.122	577.600	882510.000	445060.000	327120.000	216670.000	9740.000	2733.400
156.075	580.200	884500.000	432570.000	315950.000	214220.000	10250.000	2502.400
157.029	583.100	889420.000	444980.000	327970.000	216020.000	9910.000	2618.500
157.980	586.000	882150.000	441060.000	332410.000	219120.000	10320.000	3001.500
158.939	588.600	871270.000	441220.000	332640.000	215970.000	10000.000	2997.200
159.891	591.500	865880.000	442460.000	336620.000	219180.000	10040.000	2907.500
160.842	594.400	856620.000	431490.000	340160.000	218340.000	9680.000	2908.100
161.793	597.000	843240.000	445270.000	345790.000	218800.000	10090.000	3188.200
162.743	599.900	833360.000	426480.000	351500.000	222030.000	10310.000	2897.100
163.698	602.500	867400.000	444960.000	353430.000	220800.000	10550.000	2643.100
164.653	605.400	870270.000	444480.000	360480.000	219350.000	10580.000	2952.900
165.607	608.300	867790.000	440150.000	364020.000	217040.000	10540.000	2696.300
166.559	610.900	867680.000	438240.000	370730.000	220590.000	10570.000	2725.400
167.512	613.700	871600.000	441550.000	376380.000	220140.000	10370.000	3002.600
168.466	616.800	884700.000	437330.000	376300.000	220610.000	10310.000	2949.700
169.421	619.600	870790.000	438340.000	383800.000	218460.000	10110.000	2891.900
170.388	622.800	873900.000	442080.000	388470.000	217660.000	10080.000	2680.400
171.342	626.000	875820.000	445560.000	389950.000	218260.000	10200.000	2823.900
172.297	629.000	874000.000	440470.000	389420.000	218230.000	10390.000	2913.000
173.251	631.900	861110.000	439680.000	386510.000	217010.000	10270.000	2848.500
174.208	634.500	864870.000	439390.000	382770.000	219210.000	10410.000	2777.800
175.162	637.300	847410.000	439970.000	368580.000	216080.000	10460.000	2968.000
176.116	640.200	837880.000	439760.000	365470.000	216740.000	10500.000	2867.000
177.086	642.700	821900.000	435480.000	357380.000	215230.000	9970.000	2806.100
178.042	645.700	816060.000	437740.000	344030.000	216470.000	10370.000	2875.500
178.999	648.600	805340.000	430140.000	328740.000	215240.000	10370.000	2913.200
179.953	651.600	807070.000	424810.000	331010.000	220060.000	10410.000	2483.800
180.908	654.200	825550.000	439070.000	322010.000	219060.000	10560.000	3020.900
181.864	656.800	813530.000	438220.000	318600.000	217500.000	10230.000	2684.200
182.818	660.100	810000.000	437340.000	311440.000	212320.000	10120.000	2966.900
183.774	662.700	800930.000	426610.000	317940.000	219030.000	10200.000	2936.900
184.727	665.600	811200.000	438970.000	315370.000	216830.000	10080.000	2985.300
185.684	668.500	777920.000	442640.000	306430.000	212530.000	10120.000	2855.800
186.639	671.100	783710.000	429540.000	300980.000	215300.000	10150.000	2937.800
187.594	674.000	773770.000	436480.000	308890.000	212840.000	10300.000	2692.900
188.551	676.600	791900.000	443770.000	319690.000	222890.000	10420.000	2700.000
189.504	679.600	791240.000	445340.000	320930.000	217580.000	10560.000	2738.000
190.457	682.500	797110.000	436900.000	319720.000	218550.000	10610.000	2803.800
191.409	685.400	795070.000	439390.000	322120.000	216190.000	9790.000	2741.500
192.365	688.000	786190.000	431810.000	322220.000	219050.000	10020.000	2691.400
193.321	690.900	791280.000	442230.000	327720.000	216710.000	10360.000	2748.900
194.273	693.900	779780.000	432350.000	329760.000	220360.000	10160.000	3003.900
195.226	696.400	781650.000	438750.000	335400.000	214970.000	9830.000	2941.100
196.181	699.300	774050.000	432670.000	335760.000	216230.000	9950.000	2832.100
197.137	701.600	776540.000	436930.000	341350.000	218650.000	10090.000	2894.200
198.112	705.100	780720.000	436240.000	342910.000	216850.000	10470.000	2857.300
199.069	707.700	793900.000	436120.000	349590.000	216130.000	10260.000	2877.400
200.022	710.700	784050.000	436920.000	353930.000	215330.000	10050.000	2723.800
200.971	713.600	790560.000	437590.000	360080.000	214840.000	10550.000	2890.700
201.922	716.200	790220.000	436720.000	359990.000	216720.000	10270.000	2879.700
202.873	719.100	773880.000	435810.000	366010.000	216260.000	9810.000	2638.800
203.824	721.700	768780.000	433340.000	373220.000	215550.000	10100.000	2885.400
204.777	724.600	762340.000	433550.000	372200.000	213100.000	10040.000	3109.700
205.731	727.500	769900.000	430920.000	379780.000	216510.000	10370.000	2882.200
206.684	730.100	771680.000	443030.000	389160.000	214510.000	10350.000	2932.900
207.637	733.000	774750.000	434610.000	382420.000	216540.000	10440.000	2975.700
208.589	735.900	774320.000	432370.000	392800.000	212860.000	10160.000	2927.500
209.544	738.500	762750.000	431200.000	395070.000	214380.000	9830.000	2736.700
210.498	741.400	762260.000	422960.000	395950.000	214590.000	10210.000	2893.000
211.453	744.300	765910.000	428980.000	402410.000	215450.000	10170.000	2900.900
212.406	746.900	762240.000	433700.000	412120.000	219190.000	10310.000	2895.100
213.360	749.800	790490.000	438930.000	414440.000	217260.000	10160.000	2742.400
214.315	752.700	786630.000	437960.000	421520.000	219700.000	10610.000	2796.300
215.271	755.700	791800.000	441450.000	420540.000	214660.000	10520.000	2852.100
216.224	758.300	779820.000	434190.000	418620.000	215490.000	11080.000	2875.500
217.178	761.200	788030.000	439090.000	424710.000	220000.000	10610.000	2903.500
218.134	763.700	781130.000	438090.000	417630.000	215400.000	10410.000	2869.800
219.088	766.600	779110.000	438590.000	419020.000	216770.000	10010.000	2796.700
220.043	769.500	785960.000	438780.000	415060.000	216410.000	10530.000	2860.100
220.998	772.400	775200.000	437760.000	413920.000	217410.000	10360.000	2762.600
221.952	775.000	791240.000	435440.000	413900.000	213810.000	10560.000	2917.200
222.908	777.900	791280.000	434980.000	412370.000	214110.000	10430.000	3044.800
223.864	781.000	829800.000	437180.000	457870.000	221630.000	10730.000	3185.900
224.820	786.000	1202980.000	448500.000	527560.000	218150.000	12030.000	3187.000
225.775	796.400	1275840.000	446310.000	632930.000	223180.000	12430.000	3415.700
226.731	809.800	1097270.000	447270.000	621840.000	220120.000	12580.000	3455.200
