Wed, Jul 19, 2017	3:17 PM
 Notes: HOAc_5E-09_75 s_anneal to 320 K_719
 waiting time: 50.000
 time(ms)	 temp (K)	 MS1=1.538	 MS2=17.903	 MS3=28.250	 MS4=44.784	 MS5=61.297	 MS6=31.397	 MS7=68.640	 MS8=90.000
0.000	103.000	721760.000	379730.000	219520.000	158920.000	14510.000	1648.700
0.956	102.900	698830.000	378770.000	217840.000	157120.000	14180.000	1799.200
1.907	102.800	708280.000	379590.000	219240.000	157150.000	14260.000	1840.800
2.860	102.700	697750.000	381630.000	219900.000	157420.000	14200.000	2015.400
3.828	102.600	697860.000	379440.000	218230.000	154970.000	14010.000	1860.000
4.796	102.500	698090.000	380510.000	218350.000	157130.000	13550.000	1923.700
5.749	102.400	703360.000	381350.000	218440.000	158360.000	13500.000	1935.400
6.720	102.300	709070.000	381210.000	219800.000	157270.000	13970.000	1815.400
7.695	102.200	704720.000	380870.000	217370.000	155630.000	13620.000	1789.000
8.648	102.100	704980.000	383240.000	218920.000	155950.000	13810.000	1955.300
9.602	102.100	691900.000	380070.000	228500.000	158800.000	13160.000	1934.300
10.559	102.300	702740.000	381220.000	263220.000	161760.000	13550.000	1934.600
11.512	102.800	712220.000	385010.000	281720.000	170140.000	13250.000	1925.800
12.480	103.900	711530.000	383730.000	254850.000	166640.000	13100.000	1724.400
13.437	105.800	713080.000	379390.000	244100.000	167810.000	13170.000	1898.400
14.403	108.700	712250.000	383860.000	244380.000	167190.000	13240.000	1814.800
15.357	111.900	708400.000	382460.000	240840.000	164230.000	13060.000	1996.200
16.312	115.800	707940.000	381050.000	237420.000	167750.000	13140.000	2018.100
17.277	119.800	706810.000	379090.000	232320.000	164400.000	12800.000	1842.700
18.244	123.600	694170.000	378270.000	230580.000	164570.000	12410.000	1800.400
19.212	126.600	702790.000	376960.000	229560.000	165120.000	13000.000	1923.200
20.173	129.600	695400.000	375910.000	225480.000	162970.000	13150.000	1875.300
21.138	132.200	697640.000	375930.000	225920.000	163730.000	12730.000	1878.000
22.089	134.800	697450.000	379450.000	227200.000	161360.000	12970.000	1874.900
23.055	137.100	700100.000	378580.000	223420.000	162530.000	12540.000	1958.300
24.018	139.600	700430.000	377980.000	224440.000	163440.000	12940.000	1855.100
24.991	142.300	694210.000	378990.000	227900.000	163190.000	12600.000	1941.500
25.943	145.100	692140.000	382510.000	225470.000	163080.000	12880.000	1866.100
26.909	148.100	690300.000	390230.000	227130.000	163200.000	12520.000	1875.900
27.861	150.700	686540.000	389810.000	227140.000	162580.000	12520.000	1743.900
28.813	153.800	694610.000	399040.000	225780.000	163780.000	12670.000	1917.100
29.778	156.800	683750.000	407640.000	228430.000	162500.000	12950.000	2029.300
30.730	159.500	685490.000	412770.000	227670.000	162780.000	12690.000	1906.200
31.698	162.400	691810.000	422680.000	226380.000	163310.000	12570.000	2065.500
32.650	165.300	690890.000	426660.000	228100.000	163510.000	12890.000	1959.700
33.618	168.300	702710.000	434100.000	228640.000	163940.000	12880.000	2059.300
34.588	170.800	698390.000	434740.000	227690.000	162270.000	12800.000	2272.700
35.569	173.700	702040.000	437920.000	226940.000	165030.000	12690.000	2190.100
36.524	176.600	700860.000	434900.000	229830.000	164250.000	12650.000	2330.700
37.477	179.500	703380.000	439890.000	229580.000	165100.000	13170.000	2441.600
38.431	182.100	706840.000	433100.000	229470.000	164240.000	13450.000	2687.300
39.386	185.000	701330.000	429790.000	228200.000	166670.000	14210.000	2755.900
40.340	188.000	711270.000	430100.000	231790.000	165620.000	14510.000	3101.200
41.294	190.600	706730.000	424270.000	229460.000	167430.000	14940.000	3137.700
42.248	193.500	732400.000	428620.000	234990.000	167970.000	16300.000	3193.900
43.225	194.800	704900.000	423010.000	232130.000	166430.000	16390.000	3468.200
44.180	194.800	716860.000	423530.000	235630.000	167530.000	17330.000	3804.100
45.135	194.800	727300.000	424750.000	235880.000	169210.000	17620.000	4496.200
46.090	194.800	749200.000	425160.000	235110.000	167540.000	19040.000	4614.100
47.044	194.800	756960.000	425400.000	235940.000	168360.000	19840.000	4987.800
48.012	0.000	790380.000	424470.000	237560.000	167860.000	20470.000	5151.100
48.968	0.000	817150.000	428140.000	240450.000	171270.000	21420.000	5649.500
49.921	0.000	852670.000	432680.000	242320.000	170300.000	21980.000	6239.500
50.877	0.000	899040.000	436360.000	241950.000	170440.000	23010.000	6306.700
51.831	0.000	971770.000	437530.000	241490.000	170500.000	23730.000	6881.700
52.787	0.000	1046940.000	447580.000	242980.000	171610.000	24590.000	6893.100
53.741	0.000	1112310.000	443730.000	245840.000	171440.000	24600.000	7402.400
54.696	0.000	1153030.000	442040.000	238170.000	173350.000	24890.000	7544.700
55.651	0.000	1236960.000	444820.000	242940.000	170650.000	25260.000	7661.700
56.605	0.000	1259620.000	442320.000	242670.000	166280.000	24420.000	7249.900
57.580	0.000	1363810.000	453680.000	249450.000	174500.000	24590.000	7169.800
58.564	0.000	1393470.000	444200.000	244300.000	168280.000	23210.000	7269.100
59.537	0.000	1440070.000	450090.000	246520.000	167160.000	22850.000	6646.600
60.509	0.000	1422990.000	435260.000	241560.000	169040.000	22340.000	6576.600
61.474	0.000	1490770.000	438000.000	245840.000	169600.000	22030.000	6212.100
62.438	0.000	1524520.000	444800.000	248780.000	168310.000	21290.000	5992.800
63.409	0.000	1522270.000	443320.000	252410.000	171860.000	20360.000	5560.000
64.373	0.000	1538260.000	441990.000	251480.000	170370.000	20020.000	5112.100
65.325	0.000	1475360.000	439970.000	253200.000	171000.000	19580.000	4914.400
66.276	0.000	1483980.000	439840.000	256390.000	170600.000	18920.000	4661.700
67.227	0.000	1454190.000	435250.000	256970.000	171420.000	18150.000	4385.900
68.201	0.000	1371200.000	439130.000	258240.000	169450.000	18200.000	4085.200
69.151	0.000	1338110.000	435450.000	260520.000	168860.000	18020.000	3795.600
70.102	0.000	1284090.000	432750.000	260600.000	169530.000	17980.000	4036.900
71.063	0.000	1232460.000	433060.000	264830.000	169590.000	17300.000	3678.000
72.026	0.000	1203230.000	437160.000	265070.000	169280.000	16940.000	3837.300
72.978	0.000	1175770.000	437620.000	264580.000	171310.000	16880.000	3654.000
73.942	0.000	1186290.000	438170.000	263140.000	169080.000	16570.000	3581.000
74.894	0.000	1190350.000	441200.000	265870.000	171190.000	16800.000	3486.800
75.849	0.000	1165290.000	441320.000	264560.000	170320.000	16120.000	3078.700
76.824	0.000	1149610.000	442150.000	263090.000	169890.000	16630.000	3266.600
77.779	0.000	1130830.000	443250.000	259030.000	167910.000	16110.000	3110.700
78.732	0.000	1081260.000	454030.000	261340.000	171390.000	16540.000	3306.500
79.686	0.000	1066160.000	454180.000	256630.000	167740.000	16580.000	3291.900
80.639	0.000	1030230.000	454300.000	257250.000	170480.000	15850.000	3044.900
81.609	0.000	995350.000	460390.000	259220.000	174350.000	16470.000	3457.500
82.573	0.000	999910.000	451620.000	256730.000	171680.000	15630.000	2954.500
83.529	0.000	940340.000	431890.000	248590.000	168780.000	14650.000	2707.600
84.502	0.000	898370.000	415130.000	245590.000	169410.000	15110.000	2576.600
85.465	0.000	852480.000	405960.000	238980.000	169490.000	14210.000	2427.300
