Mon, Jul 24, 2017	12:55 PM
 Notes: HOAc_4.9E-09_15 s_724
 waiting time: 50.000
 time(ms)	 temp (K)	 MS1=1.538	 MS2=17.903	 MS3=28.250	 MS4=44.784	 MS5=61.297	 MS6=31.397	 MS7=68.640	 MS8=90.000
0.000	92.800	685100.000	103040.000	131610.000	42350.000	32640.000
0.788	92.800	646700.000	103720.000	131640.000	42010.000	31370.000
1.577	92.800	635400.000	104630.000	129430.000	41810.000	31820.000
2.367	92.800	634300.000	103680.000	132590.000	42280.000	31590.000
3.158	92.800	643100.000	105190.000	132040.000	42470.000	30830.000
3.947	92.700	641000.000	106310.000	131810.000	41470.000	31440.000
4.737	92.800	636200.000	106930.000	131470.000	42710.000	30930.000
5.526	92.800	639700.000	106100.000	132430.000	42300.000	31060.000
6.315	92.800	642400.000	107320.000	130030.000	41970.000	30400.000
7.104	92.700	639900.000	107980.000	130800.000	42440.000	29780.000
7.894	92.800	640000.000	107150.000	132130.000	42970.000	29880.000
8.687	92.900	639500.000	109360.000	140760.000	43110.000	29530.000
9.478	93.100	646000.000	114660.000	161630.000	48560.000	42800.000
10.266	93.600	669500.000	120300.000	161410.000	45380.000	33770.000
11.055	94.200	673700.000	124500.000	173220.000	47110.000	32480.000
11.848	95.300	679600.000	122830.000	184930.000	46590.000	31870.000
12.637	96.700	683700.000	121840.000	196390.000	46580.000	32290.000
13.426	98.400	699700.000	123250.000	204520.000	46780.000	34620.000
14.215	100.500	707900.000	129780.000	207580.000	46050.000	35530.000
15.006	102.900	710200.000	130250.000	211140.000	47050.000	34940.000
15.798	106.000	710600.000	126850.000	210320.000	46550.000	33970.000
16.588	108.400	703700.000	122080.000	210350.000	46670.000	32620.000
17.377	111.500	704400.000	121250.000	207420.000	45690.000	31580.000
18.167	114.200	710000.000	121110.000	202680.000	46500.000	30820.000
18.959	116.900	693700.000	120580.000	196360.000	45450.000	30610.000
19.749	119.700	689000.000	119920.000	189220.000	45950.000	29770.000
20.540	122.100	687500.000	120010.000	188890.000	45320.000	29500.000
21.331	124.500	680600.000	119810.000	183590.000	45620.000	28800.000
22.124	126.600	671700.000	119170.000	178750.000	45940.000	29310.000
22.914	128.800	668700.000	120190.000	176640.000	45800.000	28480.000
23.705	130.900	663300.000	120700.000	174800.000	45310.000	28960.000
24.496	133.400	663100.000	121550.000	174750.000	45330.000	29220.000
25.288	135.500	663300.000	123810.000	174850.000	45210.000	28580.000
26.079	137.600	657900.000	124000.000	173830.000	46670.000	28740.000
26.872	139.800	667200.000	124260.000	173800.000	47440.000	28890.000
27.661	142.100	666700.000	124070.000	174050.000	47290.000	29150.000
28.450	144.600	663900.000	125430.000	175960.000	47230.000	29450.000
29.242	146.500	667300.000	127450.000	173230.000	47550.000	31440.000
30.033	149.100	668400.000	128670.000	171180.000	48160.000	34000.000
30.824	151.400	663700.000	130160.000	168500.000	49500.000	39750.000
31.610	153.700	668300.000	133890.000	175100.000	52610.000	48690.000
32.398	156.000	677100.000	140460.000	177590.000	54070.000	61180.000
33.187	158.600	678000.000	149910.000	184350.000	57270.000	78680.000
33.978	160.900	708900.000	163840.000	191600.000	63240.000	96680.000
34.766	163.200	722100.000	174310.000	194100.000	62980.000	86120.000
35.555	165.500	727400.000	172200.000	187270.000	58830.000	64670.000
36.348	167.700	716300.000	167090.000	183660.000	57870.000	63410.000
37.138	170.000	702700.000	172810.000	179030.000	58660.000	66790.000
37.925	172.200	714200.000	176480.000	182500.000	59750.000	75050.000
38.714	174.500	707700.000	181740.000	184020.000	60360.000	70240.000
39.502	177.100	716600.000	180660.000	180720.000	57720.000	55600.000
40.291	179.300	717700.000	175920.000	174380.000	54590.000	49070.000
41.078	181.600	701400.000	171170.000	171300.000	54910.000	45700.000
41.865	183.800	689900.000	170100.000	170360.000	53940.000	42110.000
42.652	186.400	687600.000	169560.000	167850.000	54090.000	39960.000
43.443	188.700	682900.000	168700.000	166610.000	53310.000	38690.000
44.230	190.900	682000.000	168070.000	166720.000	52830.000	37030.000
45.022	193.200	674800.000	168190.000	164890.000	52200.000	35960.000
45.813	195.500	676400.000	170460.000	162460.000	52550.000	36400.000
46.602	198.100	673500.000	168190.000	162620.000	53010.000	35890.000
47.392	200.400	667700.000	167940.000	163770.000	53340.000	35010.000
48.187	202.600	669600.000	168500.000	162250.000	52400.000	34960.000
48.976	204.900	667600.000	168560.000	160360.000	52370.000	34830.000
49.763	207.200	668100.000	169010.000	159720.000	52980.000	34630.000
50.555	209.800	668200.000	167200.000	162150.000	52250.000	34000.000
51.347	211.700	674000.000	167970.000	161430.000	52560.000	33630.000
52.136	214.300	683100.000	168580.000	160580.000	52780.000	33870.000
52.926	216.600	696800.000	168860.000	161140.000	52240.000	33200.000
53.717	218.800	710500.000	170730.000	160650.000	52750.000	33310.000
54.507	221.200	741000.000	171020.000	160160.000	54220.000	33200.000
55.302	223.700	758100.000	169270.000	159640.000	53130.000	33090.000
56.092	226.000	793000.000	171150.000	161090.000	51820.000	32090.000
56.884	228.300	841600.000	167970.000	159760.000	52310.000	31900.000
57.675	230.500	876300.000	167660.000	159080.000	52890.000	31940.000
58.467	232.800	917500.000	168540.000	158900.000	52930.000	31220.000
59.258	235.400	970400.000	170820.000	158210.000	53280.000	31610.000
60.051	237.400	1010900.000	170810.000	159170.000	53050.000	31080.000
60.842	240.000	1054300.000	172090.000	159310.000	53080.000	30970.000
61.633	242.300	1095700.000	170230.000	159060.000	53680.000	30580.000
62.425	244.500	1136800.000	171670.000	157750.000	53040.000	30120.000
63.218	247.100	1167600.000	174260.000	156760.000	53090.000	29530.000
64.008	249.100	1206100.000	169210.000	158930.000	53890.000	30030.000
64.799	251.700	1243500.000	170810.000	157600.000	52970.000	29290.000
65.600	254.000	1297600.000	173110.000	157960.000	53270.000	28840.000
66.391	256.600	1327600.000	170550.000	155890.000	52930.000	28050.000
67.182	258.800	1343600.000	171040.000	156060.000	52800.000	28280.000
67.975	261.100	1382400.000	171320.000	157370.000	52750.000	27880.000
68.765	263.400	1412300.000	170050.000	156100.000	53350.000	27060.000
69.555	265.700	1422300.000	170890.000	156480.000	52860.000	26920.000
70.349	268.000	1413700.000	167300.000	155430.000	52670.000	26750.000
71.139	270.600	1385900.000	171500.000	155910.000	53240.000	26140.000
71.927	272.800	1330900.000	167670.000	156870.000	51860.000	26390.000
72.720	275.100	1289200.000	168300.000	156750.000	54000.000	25870.000
73.510	277.300	1229200.000	168460.000	158120.000	52860.000	25410.000
74.300	279.600	1166200.000	167650.000	157400.000	53840.000	25200.000
75.090	281.900	1127000.000	168100.000	156980.000	53980.000	25150.000
75.878	284.500	1098400.000	171000.000	158660.000	53450.000	24640.000
76.667	286.500	1067100.000	170160.000	158970.000	53000.000	25110.000
77.457	289.100	1048800.000	171370.000	158770.000	53840.000	24220.000
78.245	291.400	1025300.000	171910.000	158430.000	53680.000	24500.000
79.031	293.700	993900.000	172490.000	158380.000	53470.000	24330.000
79.822	295.900	973400.000	177480.000	157740.000	54080.000	24610.000
80.614	298.300	954100.000	177820.000	157350.000	53750.000	26400.000
81.434	300.900	947500.000	175930.000	157050.000	53690.000	23710.000
82.223	303.100	924600.000	180570.000	157800.000	54390.000	23650.000
83.011	305.700	907600.000	180340.000	156030.000	53900.000	23560.000
83.800	308.000	901800.000	181050.000	154990.000	53750.000	23310.000
84.588	310.200	889600.000	184420.000	157710.000	54450.000	23450.000
85.375	312.500	875300.000	182080.000	155780.000	53930.000	23410.000
86.165	314.800	872100.000	181660.000	156420.000	54330.000	23220.000
86.954	317.000	853200.000	177450.000	155720.000	54380.000	22820.000
87.745	319.700	849700.000	176150.000	156670.000	54370.000	22770.000
88.533	321.900	835700.000	176970.000	155150.000	54310.000	23010.000
89.322	324.200	833100.000	175460.000	157330.000	55000.000	22950.000
90.113	326.500	828400.000	172910.000	157100.000	54890.000	22860.000
90.902	328.700	827400.000	171380.000	155750.000	54200.000	22890.000
91.693	331.300	815000.000	173030.000	156440.000	55570.000	22590.000
92.484	333.300	827600.000	174770.000	157120.000	55120.000	22580.000
93.272	335.900	828800.000	174790.000	156190.000	55530.000	22560.000
94.063	338.100	813200.000	175010.000	157640.000	55800.000	22250.000
94.855	340.400	806200.000	174310.000	156500.000	55130.000	21730.000
95.645	342.700	804100.000	177000.000	156950.000	54490.000	22050.000
96.436	345.000	802700.000	173890.000	155720.000	54900.000	22360.000
97.227	347.600	792100.000	177010.000	158000.000	55420.000	22150.000
98.018	349.900	806700.000	176400.000	157240.000	55450.000	21720.000
98.808	352.200	800100.000	176580.000	156320.000	56320.000	21350.000
99.602	354.400	790400.000	176380.000	157160.000	55270.000	21270.000
100.394	356.700	793000.000	176700.000	156850.000	55410.000	21570.000
101.183	359.000	787800.000	178400.000	159610.000	56470.000	20970.000
101.977	361.600	789400.000	175560.000	159910.000	56440.000	21950.000
102.766	363.900	799800.000	179370.000	159110.000	56050.000	20880.000
103.557	366.100	790800.000	180340.000	161230.000	58090.000	20910.000
104.348	368.700	791600.000	181250.000	162040.000	58710.000	21630.000
105.140	371.000	778800.000	180630.000	161580.000	59090.000	20960.000
105.934	373.300	785600.000	181760.000	163910.000	59990.000	21410.000
106.726	375.600	788900.000	183940.000	164910.000	60800.000	21140.000
107.517	377.900	790500.000	180660.000	168010.000	61420.000	20770.000
108.307	380.500	806300.000	183940.000	169020.000	62760.000	21160.000
109.096	382.700	794800.000	183470.000	174440.000	64710.000	20640.000
109.887	385.000	800500.000	182360.000	175970.000	68530.000	20630.000
110.678	387.200	814400.000	184320.000	177320.000	68720.000	21110.000
111.468	389.500	817300.000	182690.000	183320.000	71460.000	20960.000
112.260	391.800	818700.000	183550.000	187330.000	76610.000	21380.000
113.055	394.100	842000.000	186660.000	193810.000	81710.000	20390.000
113.847	396.300	860800.000	186170.000	198240.000	86030.000	20860.000
114.634	399.000	878600.000	186650.000	205730.000	90960.000	20110.000
115.424	401.200	898700.000	186060.000	212220.000	99440.000	20580.000
116.213	403.500	922200.000	187360.000	222510.000	106630.000	20670.000
117.000	406.100	959300.000	188290.000	233830.000	114790.000	20520.000
117.791	408.000	983500.000	186320.000	242460.000	123110.000	20460.000
118.579	410.700	1032400.000	189450.000	260040.000	134980.000	19980.000
119.368	412.900	1096100.000	189290.000	275170.000	151450.000	20340.000
120.157	415.200	1156700.000	190440.000	293840.000	168350.000	20170.000
120.946	417.400	1253500.000	190180.000	318630.000	195710.000	20090.000
121.734	420.000	1377900.000	192960.000	352450.000	236560.000	20070.000
122.520	422.300	1556400.000	192370.000	389290.000	296250.000	20430.000
123.308	424.500	1833800.000	192080.000	446350.000	421350.000	20550.000
124.095	426.800	2384700.000	196600.000	517370.000	766100.000	21520.000
124.885	429.100	3471500.000	195030.000	594330.000	1483740.000	22220.000
125.673	431.300	5104500.000	199160.000	673740.000	1205840.000	22190.000
126.460	433.900	4198600.000	200100.000	655200.000	568260.000	20330.000
127.251	436.200	2510400.000	197020.000	585780.000	262520.000	20020.000
128.038	438.400	1752600.000	196510.000	532580.000	198660.000	19980.000
128.829	440.700	1510600.000	199410.000	485110.000	168400.000	19960.000
129.619	443.000	1383100.000	199370.000	439790.000	152900.000	19370.000
130.408	445.200	1297400.000	198470.000	402970.000	143270.000	19580.000
131.199	447.800	1221200.000	200440.000	368660.000	133670.000	19440.000
131.988	450.100	1179100.000	199070.000	340160.000	127030.000	19160.000
132.781	452.400	1145500.000	198720.000	313750.000	123360.000	19060.000
133.570	454.600	1096400.000	198690.000	297250.000	117360.000	19130.000
134.359	456.900	1083100.000	201530.000	283150.000	117180.000	19540.000
135.151	459.500	1044800.000	200230.000	274230.000	113650.000	19120.000
135.944	461.800	1020400.000	201350.000	265670.000	108870.000	19400.000
136.733	464.000	997500.000	201910.000	260660.000	108370.000	18980.000
137.524	466.300	973200.000	201820.000	257250.000	105570.000	19330.000
138.316	468.600	957400.000	204230.000	252350.000	103300.000	19120.000
139.108	471.200	932900.000	201210.000	251250.000	101410.000	18840.000
139.901	473.100	918400.000	204580.000	246550.000	100340.000	18770.000
140.693	475.700	901300.000	202240.000	246200.000	98920.000	18980.000
141.484	478.000	900100.000	205120.000	245050.000	98570.000	18550.000
142.276	480.300	884200.000	205670.000	240800.000	96070.000	18990.000
143.069	482.500	871500.000	204040.000	238580.000	94170.000	18690.000
143.860	484.800	850600.000	204780.000	236340.000	92090.000	18690.000
144.655	487.400	837500.000	205970.000	233510.000	92090.000	18660.000
145.452	489.700	837300.000	204590.000	230400.000	91340.000	18280.000
146.243	491.900	824400.000	208170.000	231510.000	89370.000	17980.000
147.035	494.200	806400.000	205990.000	230780.000	89100.000	18220.000
147.826	496.800	814100.000	207140.000	227240.000	85450.000	18150.000
148.619	499.100	797100.000	205520.000	226830.000	85950.000	18360.000
149.409	501.300	800500.000	206620.000	225260.000	84750.000	18850.000
150.199	503.600	795000.000	205180.000	224630.000	84430.000	17850.000
150.992	505.900	777900.000	206530.000	221830.000	83740.000	18050.000
151.783	508.500	778100.000	207620.000	221000.000	83030.000	17660.000
152.570	510.700	764200.000	210530.000	219090.000	81510.000	18050.000
153.360	513.000	761100.000	210080.000	221410.000	80500.000	17880.000
154.152	515.300	738700.000	208330.000	217780.000	80100.000	17450.000
154.941	517.800	738400.000	211450.000	216500.000	79750.000	17810.000
155.732	520.100	730600.000	211570.000	216380.000	78340.000	18000.000
156.520	522.400	721300.000	211980.000	216470.000	77840.000	17470.000
157.306	524.600	714000.000	210890.000	215040.000	77890.000	17630.000
158.095	526.900	702400.000	210380.000	212910.000	76990.000	18050.000
158.883	529.100	710600.000	212120.000	214850.000	76570.000	17580.000
159.669	531.400	702200.000	215240.000	214400.000	77150.000	18340.000
160.456	534.000	698100.000	213980.000	211450.000	76130.000	17960.000
161.242	536.300	688300.000	215250.000	213310.000	75510.000	17580.000
162.030	538.200	698000.000	213890.000	210720.000	75640.000	17750.000
162.817	540.800	690000.000	214780.000	209990.000	75350.000	17420.000
163.609	543.000	681400.000	214990.000	211590.000	74150.000	17160.000
164.399	545.300	683200.000	214750.000	211650.000	75170.000	17720.000
165.189	547.600	675500.000	213370.000	208920.000	74730.000	17660.000
165.978	549.500	672500.000	215470.000	208950.000	74580.000	17680.000
166.768	552.400	670000.000	215500.000	210610.000	73930.000	17570.000
167.559	554.700	661100.000	217490.000	207810.000	72890.000	16970.000
168.347	556.900	659700.000	215660.000	206340.000	74970.000	17320.000
169.136	559.200	663300.000	216610.000	205460.000	74210.000	17540.000
169.927	561.800	652500.000	215690.000	207840.000	73820.000	16980.000
170.718	564.000	650700.000	216810.000	205390.000	74270.000	16980.000
171.510	566.300	651800.000	216230.000	202990.000	73290.000	16750.000
172.299	568.500	643900.000	215570.000	207450.000	72660.000	17480.000
173.088	570.800	644000.000	215500.000	208310.000	73730.000	17140.000
173.879	573.100	651600.000	218420.000	206170.000	71780.000	16630.000
174.669	575.700	634800.000	216910.000	203230.000	72380.000	17140.000
175.459	577.900	637300.000	217620.000	206170.000	73790.000	16950.000
176.249	580.200	634600.000	217520.000	205700.000	72050.000	16780.000
177.039	582.400	627400.000	218610.000	205760.000	72430.000	16640.000
177.828	584.700	630300.000	217720.000	208180.000	73200.000	17050.000
178.618	587.300	615700.000	215160.000	206790.000	73900.000	16570.000
179.409	589.500	636900.000	221110.000	210270.000	75220.000	16960.000
180.200	591.800	641900.000	220680.000	209930.000	74520.000	17210.000
180.992	594.000	646600.000	222950.000	212340.000	74720.000	17270.000
181.785	596.300	650700.000	224230.000	214010.000	74210.000	16760.000
182.575	598.900	640300.000	225560.000	212120.000	74240.000	16900.000
183.366	601.100	642000.000	223740.000	213680.000	76270.000	16920.000
184.156	603.300	651800.000	225920.000	217840.000	75690.000	17250.000
184.950	605.600	648400.000	227590.000	218490.000	74320.000	16700.000
185.741	607.800	649200.000	225030.000	218520.000	75360.000	16620.000
186.534	610.100	645700.000	224020.000	218780.000	74180.000	16840.000
187.324	612.700	642700.000	223730.000	220530.000	75340.000	17040.000
